participant,distance_setting,number_of_objects,trial_number,target_present,ran,order,response_yes,yes_no_correct,hit,false_alarm,rt_sec,rt_where_sec,response_where_x,response_where_y,target_pos_x,target_pos_y,click_distance_deg,distance_shapecomp,background_shape_idx,proto_object_idx,date_str
SR,low,3,1,False,1.0,0.0,0.0,1.0,0,0,1.0344632,,,,,,,,2.0,-1.0,2023-06-26_15h38.26.579
SR,low,3,2,True,1.0,1.0,1.0,1.0,1,0,0.6217389,0.30341506,-2.6454583611827247,-6.24209276234126,-5.434043092693855,-1.889708358755413,5.1690865,0.5149855017662048,0.0,39.0,2023-06-26_15h38.26.579
SR,low,3,3,True,1.0,2.0,0.0,0.0,0,0,0.41841793,,,,9.23509561481458,6.121560825517715,,0.5549496412277222,0.0,65.0,2023-06-26_15h38.26.579
SR,low,3,4,True,1.0,3.0,1.0,1.0,1,0,0.5388291,0.47175002,6.256954887965882,-7.921512957923549,-10.409420176212793,-6.866166833901087,16.699755,0.480796605348587,0.0,31.0,2023-06-26_15h38.26.579
SR,low,3,5,False,1.0,4.0,0.0,1.0,0,0,0.27653408,,,,,,,,2.0,-1.0,2023-06-26_15h38.26.579
SR,low,3,6,True,1.0,5.0,0.0,0.0,0,0,0.510345,,,,-1.1988285465337964,6.456425843064251,,0.8231127262115479,0.0,46.0,2023-06-26_15h38.26.579
SR,low,3,7,True,1.0,6.0,1.0,1.0,1,0,0.51614,0.38342905,2.61573410993348,-6.152920008593528,6.639001283871847,4.2123276297369445,11.11868,0.5041901469230652,0.0,47.0,2023-06-26_15h38.26.579
SR,low,3,8,False,1.0,7.0,0.0,1.0,0,0,0.41265512,,,,,,,,2.0,-1.0,2023-06-26_15h38.26.579
SR,low,3,9,True,1.0,8.0,0.0,0.0,0,0,0.87556386,,,,-1.6629412408328603,6.746795784559729,,0.5548374652862549,0.0,45.0,2023-06-26_15h38.26.579
SR,low,3,10,True,1.0,9.0,0.0,0.0,0,0,0.809736,,,,-5.615336131252118,-5.914410193067989,,0.6629336476325989,0.0,41.0,2023-06-26_15h38.26.579
SR,low,3,11,True,1.0,10.0,0.0,0.0,0,0,0.652812,,,,0.9443382649371356,9.157451374985472,,0.7091094851493835,0.0,35.0,2023-06-26_15h38.26.579
SR,low,3,12,True,1.0,11.0,1.0,1.0,1,0,0.93664193,0.31988883,5.825953244851842,2.883252371176677,1.375160325183543,5.807999028016167,5.3257585,0.4986608028411865,0.0,59.0,2023-06-26_15h38.26.579
SR,low,3,13,True,1.0,12.0,0.0,0.0,0,0,0.37614107,,,,-11.161492115980908,-0.0907507669296097,,0.566596508026123,0.0,9.0,2023-06-26_15h38.26.579
SR,low,3,14,False,1.0,13.0,1.0,0.0,0,1,0.88963294,0.3444109,-0.2229318843693307,-8.040409962920528,,,,,2.0,-1.0,2023-06-26_15h38.26.579
SR,low,3,15,False,1.0,14.0,0.0,1.0,0,0,0.38162184,,,,,,,,2.0,-1.0,2023-06-26_15h38.26.579
SR,low,3,16,True,1.0,15.0,1.0,1.0,1,0,0.6635759,0.43160987,6.509611023584457,7.11895817419396,6.195443046326862,7.737242865927119,0.6935254,0.7545811533927917,0.0,42.0,2023-06-26_15h38.26.579
SR,low,3,17,True,1.0,16.0,1.0,1.0,1,0,0.73498297,0.3838818,-1.248418552468252,10.89393808284796,-4.699221721803172,7.81417387468685,4.6252556,0.6201356053352356,0.0,3.0,2023-06-26_15h38.26.579
SR,low,3,18,False,1.0,17.0,0.0,1.0,0,0,0.44142008,,,,,,,,2.0,-1.0,2023-06-26_15h38.26.579
SR,low,3,19,False,1.0,18.0,0.0,1.0,0,0,0.500262,,,,,,,,2.0,-1.0,2023-06-26_15h38.26.579
SR,low,3,20,True,1.0,19.0,1.0,1.0,1,0,0.544168,0.35171485,-9.199655761641049,4.488361938635857,-9.831545787185732,5.779200194824671,1.4372016,0.5578656792640686,0.0,64.0,2023-06-26_15h38.26.579
SR,low,3,21,True,1.0,20.0,0.0,0.0,0,0,0.576066,,,,-1.332324508301605,7.083319106377067,,0.6201356053352356,0.0,3.0,2023-06-26_15h38.26.579
SR,low,3,22,True,1.0,21.0,0.0,0.0,0,0,0.4728539,,,,9.714261198702165,-4.81045498210446,,0.5149855017662048,0.0,57.0,2023-06-26_15h38.26.579
SR,low,3,23,False,1.0,22.0,0.0,1.0,0,0,0.58580303,,,,,,,,2.0,-1.0,2023-06-26_15h38.26.579
SR,low,3,24,False,1.0,23.0,0.0,1.0,0,0,0.4431491,,,,,,,,2.0,-1.0,2023-06-26_15h38.26.579
SR,low,3,25,True,1.0,24.0,1.0,1.0,1,0,0.7738528,0.4163859,-6.093471506095039,-6.301541264839747,-5.258296183016706,-4.53703828104289,1.9521754,0.5090845227241516,0.0,51.0,2023-06-26_15h38.26.579
SR,low,3,26,False,1.0,25.0,0.0,1.0,0,0,0.435673,,,,,,,,2.0,-1.0,2023-06-26_15h38.26.579
SR,low,3,27,True,1.0,26.0,1.0,1.0,1,0,0.63762903,0.6560879,10.046796922244503,6.034023003596551,-10.697048235461995,-3.053047713965474,22.646898,0.5149855017662048,0.0,39.0,2023-06-26_15h38.26.579
SR,low,3,28,False,1.0,27.0,0.0,1.0,0,0,0.30621386,,,,,,,,2.0,-1.0,2023-06-26_15h38.26.579
SR,low,3,29,True,1.0,28.0,0.0,0.0,0,0,0.5537,,,,-5.152418254043338,-10.721937683321649,,0.6480472087860107,0.0,58.0,2023-06-26_15h38.26.579
SR,low,3,30,False,1.0,29.0,0.0,1.0,0,0,0.5014539,,,,,,,,2.0,-1.0,2023-06-26_15h38.26.579
SR,low,3,31,True,1.0,30.0,1.0,1.0,1,0,0.86649895,0.3679359,7.431062812311023,-7.059509671695472,6.766305138656945,-8.943882754904688,1.9981904,0.5488704442977905,0.0,30.0,2023-06-26_15h38.26.579
SR,low,3,32,False,1.0,31.0,0.0,1.0,0,0,0.4393139,,,,,,,,2.0,-1.0,2023-06-26_15h38.26.579
SR,low,3,33,True,1.0,32.0,1.0,1.0,1,0,0.62641,0.5595758,0.7431062812311022,9.749554409752063,1.553647538783146,10.732264842829062,1.2738513,0.6652977466583252,0.0,50.0,2023-06-26_15h38.26.579
SR,low,3,34,False,1.0,33.0,0.0,1.0,0,0,0.6553621,,,,,,,,2.0,-1.0,2023-06-26_15h38.26.579
SR,low,3,35,False,1.0,34.0,0.0,1.0,0,0,0.3393259,,,,,,,,2.0,-1.0,2023-06-26_15h38.26.579
SR,low,3,36,False,1.0,35.0,0.0,1.0,0,0,0.30255318,,,,,,,,2.0,-1.0,2023-06-26_15h38.26.579
SR,low,3,37,False,1.0,36.0,0.0,1.0,0,0,0.23628712,,,,,,,,2.0,-1.0,2023-06-26_15h38.26.579
SR,low,3,38,False,1.0,37.0,0.0,1.0,0,0,0.26369905,,,,,,,,2.0,-1.0,2023-06-26_15h38.26.579
SR,low,3,39,False,1.0,38.0,0.0,1.0,0,0,0.23136497,,,,,,,,2.0,-1.0,2023-06-26_15h38.26.579
SR,low,3,40,True,1.0,39.0,1.0,1.0,1,0,0.79516816,0.383492,-7.208130927941692,-3.2548055117922283,8.980591745105444,-7.318209466357572,16.690895,0.5986795425415039,0.0,63.0,2023-06-26_15h38.26.579
SR,low,3,41,False,1.0,40.0,0.0,1.0,0,0,0.31097794,,,,,,,,2.0,-1.0,2023-06-26_15h38.26.579
SR,low,3,42,True,1.0,41.0,1.0,1.0,1,0,0.48621702,0.423815,-9.392863394761132,1.9766627080747323,-11.314720931719632,2.6543786259655424,2.0378506,0.4744373261928558,0.0,41.0,2023-06-26_15h38.26.579
SR,low,3,43,False,1.0,42.0,1.0,0.0,0,1,0.865715,0.41574907,-8.35251460103759,1.3227291805913624,,,,,2.0,-1.0,2023-06-26_15h38.26.579
SR,low,3,44,True,1.0,43.0,1.0,1.0,1,0,0.716418,0.351902,6.0637472548457945,-2.7643553661797005,5.913687629908495,-4.3981358598304485,1.6406574,0.5090845227241516,0.0,54.0,2023-06-26_15h38.26.579
SR,low,3,45,False,1.0,44.0,1.0,0.0,0,1,1.031888,0.32768297,5.424675852987047,-4.934225707374519,,,,,2.0,-1.0,2023-06-26_15h38.26.579
SR,low,3,46,False,1.0,45.0,0.0,1.0,0,0,0.25435996,,,,,,,,2.0,-1.0,2023-06-26_15h38.26.579
SR,low,3,47,False,1.0,46.0,0.0,1.0,0,0,0.2768991,,,,,,,,2.0,-1.0,2023-06-26_15h38.26.579
SR,low,3,48,False,1.0,47.0,1.0,0.0,0,1,0.6149461,0.59928393,-4.741018074254433,-8.78351624415163,,,,,2.0,-1.0,2023-06-26_15h38.26.579
SR,low,3,49,True,1.0,48.0,0.0,0.0,0,0,0.471318,,,,-4.381094427158183,2.9513629288225007,,0.5002890825271606,0.0,66.0,2023-06-26_15h38.26.579
SR,low,3,50,True,1.0,49.0,0.0,0.0,0,0,0.31169915,,,,10.730945852008634,-2.916003883270022,,0.5170249342918396,0.0,69.0,2023-06-26_15h38.26.579
SR,low,3,51,False,1.0,50.0,0.0,1.0,0,0,0.59177923,,,,,,,,2.0,-1.0,2023-06-26_15h38.26.579
SR,low,3,52,False,1.0,51.0,0.0,1.0,0,0,0.42618918,,,,,,,,2.0,-1.0,2023-06-26_15h38.26.579
SR,low,3,53,False,1.0,52.0,0.0,1.0,0,0,0.35479593,,,,,,,,2.0,-1.0,2023-06-26_15h38.26.579
SR,low,3,54,True,1.0,53.0,1.0,1.0,1,0,0.513417,1.1198561,5.112571214869983,1.605109567459181,8.220183227891553,3.796723800581701,3.8026867,0.5709244012832642,0.0,39.0,2023-06-26_15h38.26.579
SR,low,3,55,True,1.0,54.0,1.0,1.0,1,0,1.0264702,0.38343596,2.5860098586842364,6.004298752347307,5.572172972848286,2.7777185164380547,4.396361,0.7787971496582031,0.0,37.0,2023-06-26_15h38.26.579
SR,low,3,56,False,1.0,55.0,0.0,1.0,0,0,0.38548613,,,,,,,,2.0,-1.0,2023-06-26_15h38.26.579
SR,low,3,57,False,1.0,56.0,0.0,1.0,0,0,0.3082838,,,,,,,,2.0,-1.0,2023-06-26_15h38.26.579
SR,low,3,58,False,1.0,57.0,0.0,1.0,0,0,0.33889103,,,,,,,,2.0,-1.0,2023-06-26_15h38.26.579
SR,low,3,59,True,1.0,58.0,1.0,1.0,1,0,0.99869704,0.28740406,0.2526561356185747,-6.331265516088991,3.46204731203452,-9.90165931505988,4.800823,0.5323181748390198,0.0,31.0,2023-06-26_15h38.26.579
SR,low,3,60,True,1.0,59.0,1.0,1.0,1,0,0.818645,0.36021996,-3.879014788026354,6.762267159203032,-8.408043799881256,-7.105283573064664,14.588388,0.7787971496582031,0.0,37.0,2023-06-26_15h38.26.579
SR,low,3,61,False,1.0,60.0,0.0,1.0,0,0,0.462754,,,,,,,,2.0,-1.0,2023-06-26_15h38.26.579
SR,low,3,62,True,1.0,61.0,1.0,1.0,1,0,0.70888114,0.288229,-7.505373440434134,-1.560523190585315,-5.402995582246275,-2.1270736106952453,2.1773772,0.7787971496582031,0.0,37.0,2023-06-26_15h38.26.579
SR,low,3,63,False,1.0,62.0,0.0,1.0,0,0,0.60443807,,,,,,,,2.0,-1.0,2023-06-26_15h38.26.579
SR,low,3,64,True,1.0,63.0,1.0,1.0,1,0,0.64150596,0.42406893,-5.989436626722685,-7.431062812311023,-5.7676130848595495,-7.987391605624355,0.5989219,0.7141953706741333,0.0,64.0,2023-06-26_15h38.26.579
SR,low,3,65,True,1.0,64.0,1.0,1.0,1,0,0.6019318,0.35154295,-6.123195757344283,-6.331265516088991,-7.293753488353811,-6.903186421408188,1.3028042,0.5149855017662048,0.0,57.0,2023-06-26_15h38.26.579
SR,low,3,66,True,1.0,65.0,1.0,1.0,1,0,0.7952719,0.40736198,-9.957624168496771,2.199594592444063,-6.82366973252083,-4.550408773814634,7.442057,0.5495201945304871,0.0,22.0,2023-06-26_15h38.26.579
SR,low,3,67,True,1.0,66.0,0.0,0.0,0,0,0.54676104,,,,-8.510243050584213,-7.16649978848215,,0.5294628739356995,0.0,4.0,2023-06-26_15h38.26.579
SR,low,3,68,True,1.0,67.0,1.0,1.0,1,0,0.525635,0.255723,-9.719830158502818,2.972425124924409,-6.689676847720921,4.243602536013509,3.2859886,0.7545811533927917,0.0,13.0,2023-06-26_15h38.26.579
SR,low,3,69,False,1.0,68.0,0.0,1.0,0,0,0.38842797,,,,,,,,2.0,-1.0,2023-06-26_15h38.26.579
SR,low,3,70,True,1.0,69.0,1.0,1.0,1,0,0.582778,0.4078691,-5.186881842993094,-7.252717304815558,-6.574859060029276,-6.310572087137495,1.6775334,0.480796605348587,0.0,31.0,2023-06-26_15h38.26.579
SR,low,3,71,True,1.0,70.0,1.0,1.0,1,0,0.5668149,0.5274141,-4.636983194882078,7.535097691683378,-5.131517386388614,9.065936493651856,1.608736,0.5187864303588867,0.0,39.0,2023-06-26_15h38.26.579
SR,low,3,72,False,1.0,71.0,0.0,1.0,0,0,0.33281302,,,,,,,,2.0,-1.0,2023-06-26_15h38.26.579
SR,low,3,73,False,1.0,72.0,0.0,1.0,0,0,0.32697296,,,,,,,,2.0,-1.0,2023-06-26_15h38.26.579
SR,low,3,74,False,1.0,73.0,0.0,1.0,0,0,0.32161617,,,,,,,,2.0,-1.0,2023-06-26_15h38.26.579
SR,low,3,75,False,1.0,74.0,0.0,1.0,0,0,0.25060797,,,,,,,,2.0,-1.0,2023-06-26_15h38.26.579
SR,low,3,76,True,1.0,75.0,0.0,0.0,0,0,0.30523586,,,,7.340431189246594,-0.2497724184257011,,0.5672717690467834,0.0,21.0,2023-06-26_15h38.26.579
SR,low,3,77,False,1.0,76.0,0.0,1.0,0,0,0.28070807,,,,,,,,2.0,-1.0,2023-06-26_15h38.26.579
SR,low,3,78,False,1.0,77.0,0.0,1.0,0,0,0.32368898,,,,,,,,2.0,-1.0,2023-06-26_15h38.26.579
SR,low,3,79,False,1.0,78.0,0.0,1.0,0,0,0.32453895,,,,,,,,2.0,-1.0,2023-06-26_15h38.26.579
SR,low,3,80,False,1.0,79.0,0.0,1.0,0,0,0.22950983,,,,,,,,2.0,-1.0,2023-06-26_15h38.26.579
SR,low,3,81,True,1.0,80.0,1.0,1.0,1,0,0.4494028,0.3677919,-6.494748897959834,-3.596634401158535,-4.521266404335909,-2.579550591556531,2.220156,0.6881098747253418,0.0,54.0,2023-06-26_15h38.26.579
SR,low,3,82,False,1.0,81.0,0.0,1.0,0,0,0.28636003,,,,,,,,2.0,-1.0,2023-06-26_15h38.26.579
SR,low,3,83,True,1.0,82.0,0.0,0.0,0,0,0.2343862,,,,-2.8296534413936185,11.437097889795352,,0.566596508026123,0.0,6.0,2023-06-26_15h38.26.579
SR,low,3,84,False,1.0,83.0,0.0,1.0,0,0,0.5900011,,,,,,,,2.0,-1.0,2023-06-26_15h38.26.579
SR,low,3,85,True,1.0,84.0,1.0,1.0,1,0,0.6153021,0.4158399,1.7834550749546456,-9.927899917247526,-1.6943382104206102,-11.826798545385948,3.9624314,0.8238337635993958,0.0,62.0,2023-06-26_15h38.26.579
SR,low,3,86,False,1.0,85.0,0.0,1.0,0,0,0.61170506,,,,,,,,2.0,-1.0,2023-06-26_15h38.26.579
SR,low,3,87,True,1.0,86.0,0.0,0.0,0,0,0.9296489,,,,-0.600417541120406,-7.517919797846472,,0.7787971496582031,0.0,37.0,2023-06-26_15h38.26.579
SR,low,3,88,False,1.0,87.0,0.0,1.0,0,0,0.3995378,,,,,,,,2.0,-1.0,2023-06-26_15h38.26.579
SR,low,3,89,True,1.0,88.0,0.0,0.0,0,0,1.7323802,,,,4.162955922787457,9.66409685010939,,0.7434694766998291,0.0,68.0,2023-06-26_15h38.26.579
SR,low,3,90,False,1.0,89.0,1.0,0.0,0,1,0.4999888,0.479877,5.781366867977976,8.20389334479137,,,,,2.0,-1.0,2023-06-26_15h38.26.579
SR,low,3,91,True,1.0,90.0,1.0,1.0,1,0,0.44945097,0.391932,1.1592457987205196,10.358901560361566,1.4572951869398103,10.847372352567284,0.5722212,0.4744373261928558,0.0,3.0,2023-06-26_15h38.26.579
SR,low,3,92,False,1.0,91.0,0.0,1.0,0,0,1.586401,,,,,,,,2.0,-1.0,2023-06-26_15h38.26.579
SR,low,3,93,True,1.0,92.0,1.0,1.0,1,0,0.96388507,0.32778502,12.395012770934786,-3.0615978786721416,-5.552444049102046,3.995168337580669,19.284946,0.6395705342292786,0.0,31.0,2023-06-26_15h38.26.579
SR,low,3,94,True,1.0,93.0,1.0,1.0,1,0,0.45681286,0.37594485,-0.8471411606034567,5.112571214869983,-2.2408132672439067,6.268093045910416,1.8104012,0.4744373261928558,0.0,41.0,2023-06-26_15h38.26.579
SR,low,3,95,False,1.0,94.0,1.0,0.0,0,1,0.7121439,0.3275051,-6.747405033578409,8.010685711671282,,,,,2.0,-1.0,2023-06-26_15h38.26.579
SR,low,3,96,True,1.0,95.0,1.0,1.0,1,0,0.52608204,0.327945,-2.199594592444063,-4.324878556765015,-4.184306035345179,-3.99922247051712,2.0112512,0.7141953706741333,0.0,64.0,2023-06-26_15h38.26.579
SR,low,3,97,True,1.0,96.0,1.0,1.0,1,0,0.74477005,0.34381104,6.955474792323118,0.6836577787326141,7.226300377204395,0.0321349067123543,0.7055697,0.6629336476325989,0.0,41.0,2023-06-26_15h38.26.579
SR,low,3,98,True,1.0,97.0,1.0,1.0,1,0,0.70284295,0.34381485,-6.167782134218149,-2.526561356185748,-7.808196065048039,-2.8691076663892043,1.6757971,0.629048764705658,0.0,26.0,2023-06-26_15h38.26.579
SR,low,3,99,True,1.0,98.0,1.0,1.0,1,0,0.759614,0.31972504,10.775041077850982,-2.437388602438016,10.68887257865421,-3.1766815304592946,0.7442977,0.8238337635993958,0.0,62.0,2023-06-26_15h38.26.579
SR,low,3,100,False,1.0,99.0,1.0,0.0,0,1,0.6671901,0.31996298,7.267579430440181,3.552048024284669,,,,,2.0,-1.0,2023-06-26_15h38.26.579
JT,mid,3,1,False,1.0,0.0,1.0,0.0,0,1,1.687124,0.52820206,6.524473149209078,-10.849351705974094,,,,,2.0,-1.0,2023-06-27_11h44.41.678
JT,mid,3,2,True,1.0,1.0,1.0,1.0,1,0,0.5669291,0.83188605,3.165632758044496,-9.318552766638025,3.367092236763369,-9.39917923116598,0.21699435,1.0057801008224487,0.0,32.0,2023-06-27_11h44.41.678
JT,mid,3,3,True,1.0,2.0,0.0,0.0,0,0,0.468215,,,,-1.245750204162275,-12.248462711485352,,0.9727528691291808,0.0,0.0,2023-06-27_11h44.41.678
JT,mid,3,4,False,1.0,3.0,1.0,0.0,0,1,0.38803697,0.38325596,8.114720591043637,2.987287250549031,,,,,2.0,-1.0,2023-06-27_11h44.41.678
JT,mid,3,5,False,1.0,4.0,0.0,1.0,0,0,0.40950704,,,,,,,,2.0,-1.0,2023-06-27_11h44.41.678
JT,mid,3,6,False,1.0,5.0,0.0,1.0,0,0,0.33535695,,,,,,,,2.0,-1.0,2023-06-27_11h44.41.678
JT,mid,3,7,True,1.0,6.0,1.0,1.0,1,0,0.3142979,0.37586188,-3.552048024284669,-6.5690595260829445,-3.034914534523191,-6.833410915087132,0.58078283,1.076143741607666,0.0,47.0,2023-06-27_11h44.41.678
JT,mid,3,8,True,1.0,7.0,1.0,1.0,1,0,0.31544805,0.43987298,3.760117783029378,-6.554197400458322,4.21926628266626,-6.426847343173032,0.4764823,1.0129791498184204,0.0,68.0,2023-06-27_11h44.41.678
JT,mid,3,9,True,1.0,8.0,1.0,1.0,1,0,0.6392362,0.80825305,-2.5860098586842364,-6.881164164200008,-1.8205794857894024,-6.960210873211459,0.76950115,0.929678738117218,0.0,28.0,2023-06-27_11h44.41.678
JT,mid,3,10,True,1.0,9.0,1.0,1.0,1,0,0.86799407,0.6718068,9.095620882268694,6.078609380470416,-4.564622790071383,8.258528732448083,13.833087,1.0413960218429563,0.0,5.0,2023-06-27_11h44.41.678
JT,mid,3,11,True,1.0,10.0,1.0,1.0,1,0,0.87109804,0.47989106,-6.004298752347307,5.603021360482511,-6.400714173177653,5.979734617005567,0.546862,0.99307119846344,0.0,7.0,2023-06-27_11h44.41.678
JT,mid,3,12,True,1.0,11.0,1.0,1.0,1,0,0.45210195,0.6880801,0.8471411606034567,5.989436626722685,0.6682088590970988,5.953181423949155,0.18256837,0.9902483820915222,0.0,64.0,2023-06-27_11h44.41.678
JT,mid,3,13,True,1.0,12.0,0.0,0.0,0,0,0.41820908,,,,-4.700062200064768,-1.986172695697476,,0.99307119846344,0.0,7.0,2023-06-27_11h44.41.678
JT,mid,3,14,True,1.0,13.0,1.0,1.0,1,0,0.32234502,0.7275529,7.490511314809512,-9.66038165600433,7.959303777267115,-8.452580286359668,1.2955889,0.9998947381973268,0.0,72.0,2023-06-27_11h44.41.678
JT,mid,3,15,True,1.0,14.0,0.0,0.0,0,0,0.49046397,,,,6.984617815659386,-3.2660563982284216,,1.0037909746170044,0.0,63.0,2023-06-27_11h44.41.678
JT,mid,3,16,True,1.0,15.0,0.0,0.0,0,0,0.9411721,,,,-0.8296379187978749,12.083431180808333,,1.0057801008224487,0.0,33.0,2023-06-27_11h44.41.678
JT,mid,3,17,True,1.0,16.0,1.0,1.0,1,0,0.35620904,0.5599282,11.354663977211242,2.957562999299788,11.385932305002042,-1.8142412139215136,4.771907,1.005864500999451,0.0,74.0,2023-06-27_11h44.41.678
JT,mid,3,18,True,1.0,17.0,1.0,1.0,1,0,0.86426306,0.5916872,0.0743106281231102,0.0594485024984881,-6.7425620684522976,-0.5397142447202674,6.8431535,0.992530107498169,0.0,59.0,2023-06-27_11h44.41.678
JT,mid,3,19,False,1.0,18.0,1.0,0.0,0,1,0.63040495,0.49579787,2.779217491804322,6.821715661701519,,,,,2.0,-1.0,2023-06-27_11h44.41.678
JT,mid,3,20,False,1.0,19.0,1.0,0.0,0,1,0.41000605,0.41619492,-11.62218223845444,-1.0552109193481654,,,,,2.0,-1.0,2023-06-27_11h44.41.678
JT,mid,3,21,True,1.0,20.0,1.0,1.0,1,0,0.39922714,0.663975,-9.00644812852096,-1.0403487937235432,2.421097168346312,5.536283054867628,13.184873,1.0057801008224487,0.0,32.0,2023-06-27_11h44.41.678
JT,mid,3,22,False,1.0,21.0,1.0,0.0,0,1,1.249727,0.44786382,-0.4755880199879055,-8.189031219166749,,,,,2.0,-1.0,2023-06-27_11h44.41.678
JT,mid,3,23,True,1.0,22.0,0.0,0.0,0,0,0.42841697,,,,8.506007748910722,4.9572498814558,,0.997423529624939,0.0,0.0,2023-06-27_11h44.41.678
JT,mid,3,24,False,1.0,23.0,1.0,0.0,0,1,0.39692497,0.488302,-5.0382605867468735,2.8981144968012997,,,,,2.0,-1.0,2023-06-27_11h44.41.678
JT,mid,3,25,False,1.0,24.0,0.0,1.0,0,0,0.37214303,,,,,,,,2.0,-1.0,2023-06-27_11h44.41.678
JT,mid,3,26,False,1.0,25.0,0.0,1.0,0,0,0.49266005,,,,,,,,2.0,-1.0,2023-06-27_11h44.41.678
JT,mid,3,27,False,1.0,26.0,1.0,0.0,0,1,0.39123988,0.6559081,6.539335274833701,5.127433340494606,,,,,2.0,-1.0,2023-06-27_11h44.41.678
JT,mid,3,28,False,1.0,27.0,0.0,1.0,0,0,0.3818698,,,,,,,,2.0,-1.0,2023-06-27_11h44.41.678
JT,mid,3,29,True,1.0,28.0,1.0,1.0,1,0,0.36791587,0.58385706,-2.7049068636812126,-7.04464754607085,-3.629790754293224,-7.202806047510932,0.9383093,0.958284556865692,0.0,28.0,2023-06-27_11h44.41.678
JT,mid,3,30,False,1.0,29.0,1.0,0.0,0,1,0.4013338,0.42421103,8.515997982908432,8.040409962920528,,,,,2.0,-1.0,2023-06-27_11h44.41.678
JT,mid,3,31,False,1.0,30.0,0.0,1.0,0,0,0.494138,,,,,,,,2.0,-1.0,2023-06-27_11h44.41.678
JT,mid,3,32,False,1.0,31.0,0.0,1.0,0,0,0.33007693,,,,,,,,2.0,-1.0,2023-06-27_11h44.41.678
JT,mid,3,33,False,1.0,32.0,0.0,1.0,0,0,0.29984403,,,,,,,,2.0,-1.0,2023-06-27_11h44.41.678
JT,mid,3,34,True,1.0,33.0,1.0,1.0,1,0,0.65845084,0.56794906,7.698581073554219,1.1146594218466537,7.548720866421899,0.2272540683808773,0.8999702,1.0125123262405396,0.0,74.0,2023-06-27_11h44.41.678
JT,mid,3,35,True,1.0,34.0,0.0,0.0,0,0,0.83692694,,,,5.40273027307565,-1.5180576364202218,,0.958284556865692,0.0,28.0,2023-06-27_11h44.41.678
JT,mid,3,36,False,1.0,35.0,1.0,0.0,0,1,0.4037888,0.35187197,-6.034023003596551,-3.12104638117063,,,,,2.0,-1.0,2023-06-27_11h44.41.678
JT,mid,3,37,True,1.0,36.0,1.0,1.0,1,0,0.98254704,0.36786294,10.596695570355518,0.7728305324803463,-10.374251701309742,-1.9937433187133955,21.152649,0.9998947381973268,0.0,72.0,2023-06-27_11h44.41.678
JT,mid,3,38,False,1.0,37.0,1.0,0.0,0,1,0.220577,0.38358784,10.403487937235433,-2.987287250549031,,,,,2.0,-1.0,2023-06-27_11h44.41.678
JT,mid,3,39,True,1.0,38.0,1.0,1.0,1,0,0.43955088,0.488276,5.543572857984024,5.825953244851842,-8.933645993804788,8.163341722903649,14.664694,1.0037909746170044,0.0,63.0,2023-06-27_11h44.41.678
JT,mid,3,40,True,1.0,39.0,1.0,1.0,1,0,0.33366895,0.6562679,6.212368511092016,9.496898274133486,6.302986832658806,10.539857531121411,1.0468886,1.076143741607666,0.0,47.0,2023-06-27_11h44.41.678
JT,mid,3,41,True,1.0,40.0,1.0,1.0,1,0,0.8926561,0.647933,-8.010685711671282,-7.000061169196983,-7.727530353596358,-7.1443429206154505,0.3177958,1.0125123262405396,0.0,74.0,2023-06-27_11h44.41.678
JT,mid,3,42,True,1.0,41.0,1.0,1.0,1,0,0.26381612,0.69576716,-4.324878556765015,3.34397826553996,-4.383307879273381,3.203089182467162,0.15252449,1.011980414390564,0.0,23.0,2023-06-27_11h44.41.678
JT,mid,3,43,False,1.0,42.0,1.0,0.0,0,1,0.82623315,0.36783004,-8.917275374773228,-2.0509733361978424,,,,,2.0,-1.0,2023-06-27_11h44.41.678
JT,mid,3,44,True,1.0,43.0,1.0,1.0,1,0,0.84709,0.79230094,1.30786705496674,10.46293643973392,-7.056403585205353,1.3580728897919825,12.363639,1.0092586278915403,0.0,31.0,2023-06-27_11h44.41.678
JT,mid,3,45,True,1.0,44.0,1.0,1.0,1,0,0.921484,0.855917,10.879075957223336,-3.8492905367771098,11.409616784073137,-3.564595015699829,0.60210055,1.006396770477295,0.0,39.0,2023-06-27_11h44.41.678
JT,mid,3,46,False,1.0,45.0,1.0,0.0,0,1,0.82388616,0.447901,9.972486294121394,2.972425124924409,,,,,2.0,-1.0,2023-06-27_11h44.41.678
JT,mid,3,47,False,1.0,46.0,1.0,0.0,0,1,0.59402585,0.5198319,9.5712089022566,-5.08284696362074,,,,,2.0,-1.0,2023-06-27_11h44.41.678
JT,mid,3,48,False,1.0,47.0,1.0,0.0,0,1,0.79564905,0.4319079,6.554197400458322,6.197506385467393,,,,,2.0,-1.0,2023-06-27_11h44.41.678
JT,mid,3,49,True,1.0,48.0,1.0,1.0,1,0,0.27074504,0.615314,3.433151019287693,9.51176039975811,6.982536972431839,-7.263824374090808,17.146965,1.0065877437591553,0.0,54.0,2023-06-27_11h44.41.678
JT,mid,3,50,True,1.0,49.0,1.0,1.0,1,0,0.8292999,0.424273,-12.261253640313187,2.1104218386963307,-11.670949421112033,3.399624123326685,1.4179215,1.0037909746170044,0.0,7.0,2023-06-27_11h44.41.678
JT,mid,3,51,False,1.0,50.0,1.0,0.0,0,1,0.942225,0.6399071,10.03193479661988,-7.356752184187913,,,,,2.0,-1.0,2023-06-27_11h44.41.678
JT,mid,3,52,False,1.0,51.0,0.0,1.0,0,0,0.31827402,,,,,,,,2.0,-1.0,2023-06-27_11h44.41.678
JT,mid,3,53,True,1.0,52.0,1.0,1.0,1,0,0.374568,0.61593604,-9.73469228412744,-1.7388686980807797,-0.3294387083529111,7.112696278198024,12.915456,1.020013451576233,0.0,28.0,2023-06-27_11h44.41.678
JT,mid,3,54,True,1.0,53.0,1.0,1.0,1,0,0.63729215,0.44008303,-9.437449771635,0.6836577787326141,-11.050921938573456,0.7554898682710122,1.6150703,0.9980065822601318,0.0,23.0,2023-06-27_11h44.41.678
JT,mid,3,55,True,1.0,54.0,1.0,1.0,1,0,0.785166,0.47221994,-7.237855179190936,0.029724251249244,6.289428286848262,5.5558041408574095,14.6124935,1.0087734460830688,0.0,17.0,2023-06-27_11h44.41.678
JT,mid,3,56,False,1.0,55.0,0.0,1.0,0,0,0.42491293,,,,,,,,2.0,-1.0,2023-06-27_11h44.41.678
JT,mid,3,57,False,1.0,56.0,0.0,1.0,0,0,0.26625896,,,,,,,,2.0,-1.0,2023-06-27_11h44.41.678
JT,mid,3,58,True,1.0,57.0,0.0,0.0,0,0,0.81939197,,,,9.168290897821176,-6.058159777306231,,0.9998947381973268,0.0,12.0,2023-06-27_11h44.41.678
JT,mid,3,59,False,1.0,58.0,0.0,1.0,0,0,0.584033,,,,,,,,2.0,-1.0,2023-06-27_11h44.41.678
JT,mid,3,60,True,1.0,59.0,1.0,1.0,1,0,0.41746616,0.4002149,5.796228993602599,5.380089476113181,4.608295610344341,5.38307904117007,1.1879371,1.022789716720581,0.0,42.0,2023-06-27_11h44.41.678
JT,mid,3,61,False,1.0,60.0,0.0,1.0,0,0,0.42305112,,,,,,,,2.0,-1.0,2023-06-27_11h44.41.678
JT,mid,3,62,True,1.0,61.0,1.0,1.0,1,0,0.55885196,0.6797221,-4.949087832999141,3.165632758044496,-5.284162110298001,2.455262211282096,0.7854305,1.0413960218429563,0.0,5.0,2023-06-27_11h44.41.678
JT,mid,3,63,True,1.0,62.0,0.0,0.0,0,0,0.40164995,,,,5.41884853601008,8.167730959531077,,0.929678738117218,0.0,28.0,2023-06-27_11h44.41.678
JT,mid,3,64,True,1.0,63.0,0.0,0.0,0,0,0.543391,,,,-1.5358737353802188,-10.429346325430242,,1.0092586278915403,0.0,31.0,2023-06-27_11h44.41.678
JT,mid,3,65,False,1.0,64.0,0.0,1.0,0,0,0.4024558,,,,,,,,2.0,-1.0,2023-06-27_11h44.41.678
JT,mid,3,66,False,1.0,65.0,0.0,1.0,0,0,0.41567183,,,,,,,,2.0,-1.0,2023-06-27_11h44.41.678
JT,mid,3,67,False,1.0,66.0,0.0,1.0,0,0,0.39071107,,,,,,,,2.0,-1.0,2023-06-27_11h44.41.678
JT,mid,3,68,True,1.0,67.0,0.0,0.0,0,0,0.44241,,,,-5.3157072530914204,-10.347484882733214,,1.0057801008224487,0.0,32.0,2023-06-27_11h44.41.678
JT,mid,3,69,False,1.0,68.0,0.0,1.0,0,0,0.25346708,,,,,,,,2.0,-1.0,2023-06-27_11h44.41.678
JT,mid,3,70,False,1.0,69.0,0.0,1.0,0,0,0.42012596,,,,,,,,2.0,-1.0,2023-06-27_11h44.41.678
JT,mid,3,71,True,1.0,70.0,1.0,1.0,1,0,0.67607594,0.37595105,-5.692194114230244,-4.310016431140393,-9.8375365831078,-3.2348302988215143,4.28251,0.9929296374320984,0.0,66.0,2023-06-27_11h44.41.678
JT,mid,3,72,True,1.0,71.0,1.0,1.0,1,0,0.4681301,0.65589905,-6.286679139215126,-3.34397826553996,-1.445096226727738,6.932652419177614,11.360021,0.9981024265289308,0.0,42.0,2023-06-27_11h44.41.678
JT,mid,3,73,False,1.0,72.0,0.0,1.0,0,0,0.2959199,,,,,,,,2.0,-1.0,2023-06-27_11h44.41.678
JT,mid,3,74,True,1.0,73.0,0.0,0.0,0,0,0.2846501,,,,7.677599923083457,-4.274394112876259,,1.0092586278915403,0.0,31.0,2023-06-27_11h44.41.678
JT,mid,3,75,False,1.0,74.0,0.0,1.0,0,0,0.48878598,,,,,,,,2.0,-1.0,2023-06-27_11h44.41.678
JT,mid,3,76,False,1.0,75.0,1.0,0.0,0,1,0.3635509,0.51165104,0.4904501456125275,-12.736841660301092,,,,,2.0,-1.0,2023-06-27_11h44.41.678
JT,mid,3,77,False,1.0,76.0,0.0,1.0,0,0,0.24901795,,,,,,,,2.0,-1.0,2023-06-27_11h44.41.678
JT,mid,3,78,False,1.0,77.0,0.0,1.0,0,0,0.246634,,,,,,,,2.0,-1.0,2023-06-27_11h44.41.678
JT,mid,3,79,False,1.0,78.0,0.0,1.0,0,0,0.16414213,,,,,,,,2.0,-1.0,2023-06-27_11h44.41.678
JT,mid,3,80,False,1.0,79.0,0.0,1.0,0,0,0.18864799,,,,,,,,2.0,-1.0,2023-06-27_11h44.41.678
JT,mid,3,81,False,1.0,80.0,0.0,1.0,0,0,0.20164704,,,,,,,,2.0,-1.0,2023-06-27_11h44.41.678
JT,mid,3,82,True,1.0,81.0,0.0,0.0,0,0,0.13724399,,,,-11.30539762491362,1.241707257940125,,0.958284556865692,0.0,28.0,2023-06-27_11h44.41.678
JT,mid,3,83,True,1.0,82.0,1.0,1.0,1,0,0.38970518,0.9362309,-5.053122712371495,-4.681569571755944,-4.29496467485914,3.1883234540639926,7.9063277,0.9939753413200378,0.0,5.0,2023-06-27_11h44.41.678
JT,mid,3,84,False,1.0,83.0,1.0,0.0,0,1,0.7920079,0.48030305,7.222993053566314,0.65393352748337,,,,,2.0,-1.0,2023-06-27_11h44.41.678
JT,mid,3,85,True,1.0,84.0,1.0,1.0,1,0,0.21012211,0.6480639,7.5499598173079985,8.93213750039785,6.977224137715452,9.546231337579684,0.8397246,1.076143741607666,0.0,47.0,2023-06-27_11h44.41.678
JT,mid,3,86,False,1.0,85.0,1.0,0.0,0,1,0.20503807,0.52764106,-11.072283590343424,-3.2548055117922283,,,,,2.0,-1.0,2023-06-27_11h44.41.678
JT,mid,3,87,False,1.0,86.0,0.0,1.0,0,0,0.78833103,,,,,,,,2.0,-1.0,2023-06-27_11h44.41.678
JT,mid,3,88,False,1.0,87.0,0.0,1.0,0,0,0.2202971,,,,,,,,2.0,-1.0,2023-06-27_11h44.41.678
JT,mid,3,89,False,1.0,88.0,0.0,1.0,0,0,0.21364713,,,,,,,,2.0,-1.0,2023-06-27_11h44.41.678
JT,mid,3,90,True,1.0,89.0,0.0,0.0,0,0,0.26999807,,,,-7.129625528410846,5.883198894588204,,0.9900014996528624,0.0,51.0,2023-06-27_11h44.41.678
JT,mid,3,91,False,1.0,90.0,0.0,1.0,0,0,0.31172085,,,,,,,,2.0,-1.0,2023-06-27_11h44.41.678
JT,mid,3,92,True,1.0,91.0,1.0,1.0,1,0,1.0070109,0.37562704,-4.057360295521819,5.603021360482511,-0.6706330063247614,-10.938961652369306,16.885115,1.0005711317062378,0.0,22.0,2023-06-27_11h44.41.678
JT,mid,3,93,False,1.0,92.0,1.0,0.0,0,1,0.39365292,0.5998659,7.5945461941818655,-8.842964746650116,,,,,2.0,-1.0,2023-06-27_11h44.41.678
JT,mid,3,94,True,1.0,93.0,1.0,1.0,1,0,0.6733291,0.47181892,-9.675243781628954,-0.5647607737356378,-4.168772340303367,3.211632719960697,6.6770034,1.0256428718566897,0.0,60.0,2023-06-27_11h44.41.678
JT,mid,3,95,False,1.0,94.0,0.0,1.0,0,0,0.40012097,,,,,,,,2.0,-1.0,2023-06-27_11h44.41.678
JT,mid,3,96,True,1.0,95.0,0.0,0.0,0,0,0.7011242,,,,-4.704661033256495,-2.9085371730871987,,1.0129791498184204,0.0,68.0,2023-06-27_11h44.41.678
JT,mid,3,97,False,1.0,96.0,1.0,0.0,0,1,0.68005085,0.5518639,-8.367376726662213,1.2632806780928738,,,,,2.0,-1.0,2023-06-27_11h44.41.678
JT,mid,3,98,True,1.0,97.0,0.0,0.0,0,0,1.276176,,,,6.424196798919981,9.173102212047906,,0.9886699318885804,0.0,74.0,2023-06-27_11h44.41.678
JT,mid,3,99,True,1.0,98.0,0.0,0.0,0,0,0.3257749,,,,9.72142054041533,-4.250090504377552,,1.0129791498184204,0.0,68.0,2023-06-27_11h44.41.678
JT,mid,3,100,True,1.0,99.0,0.0,0.0,0,0,0.37558508,,,,-5.138468682888159,2.880702511853296,,0.9929296374320984,0.0,66.0,2023-06-27_11h44.41.678
HT,mid,4,1,True,1.0,0.0,0.0,0.0,0,0,1.083538,,,,-2.148226972928187,4.555919388088164,,0.9886699318885804,0.0,74.0,2023-06-27_15h07.28.705
HT,mid,4,2,False,1.0,1.0,0.0,1.0,0,0,0.72861195,,,,,,,,3.0,-1.0,2023-06-27_15h07.28.705
HT,mid,4,3,False,1.0,2.0,0.0,1.0,0,0,0.7681489,,,,,,,,3.0,-1.0,2023-06-27_15h07.28.705
HT,mid,4,4,True,1.0,3.0,1.0,1.0,1,0,0.6448989,0.3998711,1.887489954327,-9.288828515388778,0.4238152938007827,-8.275487027639695,1.780226,0.997423529624939,0.0,0.0,2023-06-27_15h07.28.705
HT,mid,4,5,False,1.0,4.0,0.0,1.0,0,0,0.48510385,,,,,,,,3.0,-1.0,2023-06-27_15h07.28.705
HT,mid,4,6,True,1.0,5.0,0.0,0.0,0,0,0.91962194,,,,9.2060399873717,5.097595932737872,,0.992530107498169,0.0,59.0,2023-06-27_15h07.28.705
HT,mid,4,7,False,1.0,6.0,1.0,0.0,0,1,0.7484951,0.28778505,5.900263872974953,-3.715531406155512,,,,,3.0,-1.0,2023-06-27_15h07.28.705
HT,mid,4,8,True,1.0,7.0,0.0,0.0,0,0,0.35428786,,,,3.959551644482469,8.169219969102194,,0.9917131662368774,0.0,21.0,2023-06-27_15h07.28.705
HT,mid,4,9,False,1.0,8.0,0.0,1.0,0,0,0.5693779,,,,,,,,3.0,-1.0,2023-06-27_15h07.28.705
HT,mid,4,10,True,1.0,9.0,0.0,0.0,0,0,0.56738186,,,,10.712785224626458,6.363488224012025,,1.0064027309417725,0.0,64.0,2023-06-27_15h07.28.705
HT,mid,4,11,True,1.0,10.0,1.0,1.0,1,0,0.622704,0.2954371,5.127433340494606,-3.12104638117063,-9.40385101604404,-0.0474551121946662,14.852784,1.0005711317062378,0.0,22.0,2023-06-27_15h07.28.705
HT,mid,4,12,False,1.0,11.0,0.0,1.0,0,0,0.6519258,,,,,,,,3.0,-1.0,2023-06-27_15h07.28.705
HT,mid,4,13,True,1.0,12.0,1.0,1.0,1,0,1.0305662,0.37578177,8.010685711671282,-6.881164164200008,9.24050418694311,-9.081938681513346,2.5210836,0.990826427936554,0.0,47.0,2023-06-27_15h07.28.705
HT,mid,4,14,True,1.0,13.0,1.0,1.0,1,0,1.4933851,0.351861,9.883313540373662,-7.416200686686402,-6.749173710192647,8.22721709023281,22.833225,0.9790334701538086,0.0,5.0,2023-06-27_15h07.28.705
HT,mid,4,15,True,1.0,14.0,1.0,1.0,1,0,0.6238289,0.2562809,-6.331265516088991,-3.091322129921385,-10.09290310329031,-3.905647469926718,3.8487716,1.0005711317062378,0.0,22.0,2023-06-27_15h07.28.705
HT,mid,4,16,False,1.0,15.0,0.0,1.0,0,0,0.471627,,,,,,,,3.0,-1.0,2023-06-27_15h07.28.705
HT,mid,4,17,True,1.0,16.0,1.0,1.0,1,0,0.600585,0.51169896,-4.889639330500653,-10.96824871097107,-4.121088406067747,-12.156188414827431,1.414875,0.992530107498169,0.0,59.0,2023-06-27_15h07.28.705
HT,mid,4,18,False,1.0,17.0,0.0,1.0,0,0,0.8511741,,,,,,,,3.0,-1.0,2023-06-27_15h07.28.705
HT,mid,4,19,False,1.0,18.0,0.0,1.0,0,0,0.34132814,,,,,,,,3.0,-1.0,2023-06-27_15h07.28.705
HT,mid,4,20,False,1.0,19.0,0.0,1.0,0,0,0.69115806,,,,,,,,3.0,-1.0,2023-06-27_15h07.28.705
HT,mid,4,21,True,1.0,20.0,1.0,1.0,1,0,0.45296407,0.34442806,7.5945461941818655,-0.9363139143511888,-2.5153164513236907,12.014829164485084,16.429893,0.9981024265289308,0.0,56.0,2023-06-27_15h07.28.705
HT,mid,4,22,False,1.0,21.0,0.0,1.0,0,0,0.6404879,,,,,,,,3.0,-1.0,2023-06-27_15h07.28.705
HT,mid,4,23,False,1.0,22.0,0.0,1.0,0,0,0.46733785,,,,,,,,3.0,-1.0,2023-06-27_15h07.28.705
HT,mid,4,24,False,1.0,23.0,0.0,1.0,0,0,0.7638049,,,,,,,,3.0,-1.0,2023-06-27_15h07.28.705
HT,mid,4,25,False,1.0,24.0,1.0,0.0,0,1,1.064369,0.42382407,-7.237855179190936,6.658232279830678,,,,,3.0,-1.0,2023-06-27_15h07.28.705
HT,mid,4,26,True,1.0,25.0,1.0,1.0,1,0,0.35478902,0.488281,-11.503285233457463,-6.197506385467393,-11.015928553760832,-6.149964834938673,0.48967004,1.006396770477295,0.0,55.0,2023-06-27_15h07.28.705
HT,mid,4,27,False,1.0,26.0,0.0,1.0,0,0,0.540534,,,,,,,,3.0,-1.0,2023-06-27_15h07.28.705
HT,mid,4,28,True,1.0,27.0,1.0,1.0,1,0,0.47929788,0.59188604,2.3630779743149053,8.397100977911457,-3.362656703275158,6.014926692289672,6.201515,0.9727528691291808,0.0,0.0,2023-06-27_15h07.28.705
HT,mid,4,29,True,1.0,28.0,1.0,1.0,1,0,0.3395369,0.39983392,3.076460004296764,5.825953244851842,2.9170814889021845,6.402299169149889,0.5979767,1.01024067401886,0.0,13.0,2023-06-27_15h07.28.705
HT,mid,4,30,False,1.0,29.0,1.0,0.0,0,1,0.46019602,0.2478671,-1.8280414518285115,-5.246330345491582,,,,,3.0,-1.0,2023-06-27_15h07.28.705
HT,mid,4,31,True,1.0,30.0,0.0,0.0,0,0,1.1132989,,,,-11.88263918448151,4.168994934011709,,1.0000357627868652,0.0,73.0,2023-06-27_15h07.28.705
HT,mid,4,32,False,1.0,31.0,0.0,1.0,0,0,0.81938696,,,,,,,,3.0,-1.0,2023-06-27_15h07.28.705
HT,mid,4,33,False,1.0,32.0,0.0,1.0,0,0,0.81699586,,,,,,,,3.0,-1.0,2023-06-27_15h07.28.705
HT,mid,4,34,True,1.0,33.0,1.0,1.0,1,0,0.77422595,0.535794,10.90880020847258,5.885401747350331,9.584345794060548,7.411513250978813,2.0206919,0.9980065822601318,0.0,23.0,2023-06-27_15h07.28.705
HT,mid,4,35,False,1.0,34.0,0.0,1.0,0,0,0.45439315,,,,,,,,3.0,-1.0,2023-06-27_15h07.28.705
HT,mid,4,36,False,1.0,35.0,1.0,0.0,0,1,0.540282,0.4240961,8.293066098539104,6.375851892962857,,,,,3.0,-1.0,2023-06-27_15h07.28.705
HT,mid,4,37,True,1.0,36.0,0.0,0.0,0,0,1.1683121,,,,-7.601435972441326,-9.118200173580982,,0.929678738117218,0.0,28.0,2023-06-27_15h07.28.705
HT,mid,4,38,True,1.0,37.0,1.0,1.0,1,0,0.50625896,0.34383512,3.7303935317801336,-5.781366867977976,4.793517520632114,-5.67374317734362,1.0685576,1.0054510831832886,0.0,64.0,2023-06-27_15h07.28.705
HT,mid,4,39,False,1.0,38.0,0.0,1.0,0,0,0.5888171,,,,,,,,3.0,-1.0,2023-06-27_15h07.28.705
HT,mid,4,40,False,1.0,39.0,1.0,0.0,0,1,1.0302441,0.31984186,-7.104096048569338,5.394951601737803,,,,,3.0,-1.0,2023-06-27_15h07.28.705
HT,mid,4,41,True,1.0,40.0,1.0,1.0,1,0,0.44420123,0.36010003,-1.9766627080747323,10.552109193481654,-1.059925173959881,10.849170925846082,0.9636666,0.9936248064041138,0.0,36.0,2023-06-27_15h07.28.705
HT,mid,4,42,True,1.0,41.0,1.0,1.0,1,0,0.5607109,0.44765878,5.08284696362074,-9.690105907253574,5.3823297478006005,-11.536941083664566,1.8709596,0.9924787878990172,0.0,55.0,2023-06-27_15h07.28.705
HT,mid,4,43,True,1.0,42.0,0.0,0.0,0,0,0.5392711,,,,-7.74179333855274,1.4685138028196196,,1.0054510831832886,0.0,64.0,2023-06-27_15h07.28.705
HT,mid,4,44,True,1.0,43.0,1.0,1.0,1,0,0.4947381,0.48764396,12.454461273433274,0.3566910149909291,12.870098646384484,0.2202097619880827,0.43747178,0.99186372756958,0.0,28.0,2023-06-27_15h07.28.705
HT,mid,4,45,True,1.0,44.0,1.0,1.0,1,0,0.52380395,0.3843069,-1.96180058245011,5.409813727362425,-7.126812536432837,5.038403563002235,5.1783485,0.9991062879562378,0.0,1.0,2023-06-27_15h07.28.705
HT,mid,4,46,False,1.0,45.0,1.0,0.0,0,1,0.49650598,0.43161893,-1.010624542474299,11.428974605334352,,,,,3.0,-1.0,2023-06-27_15h07.28.705
HT,mid,4,47,True,1.0,46.0,1.0,1.0,1,0,0.49403906,0.672354,-3.8492905367771098,8.397100977911457,-4.21928140093467,-5.9167890010611925,14.318671,1.020013451576233,0.0,28.0,2023-06-27_15h07.28.705
HT,mid,4,48,True,1.0,47.0,1.0,1.0,1,0,0.56943107,0.3600421,-10.16569392724148,-7.564821942932621,-8.966940233036256,-3.1560963608264845,4.5687933,0.992530107498169,0.0,31.0,2023-06-27_15h07.28.705
HT,mid,4,49,True,1.0,48.0,1.0,1.0,1,0,1.711921,0.2554469,-4.845052953626787,-4.963949958623763,-11.494094197741076,-0.0933583756921784,8.242112,1.006396770477295,0.0,39.0,2023-06-27_15h07.28.705
HT,mid,4,50,True,1.0,49.0,1.0,1.0,1,0,1.812437,0.30398607,-1.902352079951622,-8.084996339794392,-4.432061354436788,-5.839843958891289,3.3823273,0.9947356581687928,0.0,30.0,2023-06-27_15h07.28.705
HT,mid,4,51,False,1.0,50.0,0.0,1.0,0,0,0.48825192,,,,,,,,3.0,-1.0,2023-06-27_15h07.28.705
HT,mid,4,52,True,1.0,51.0,1.0,1.0,1,0,0.788044,0.38385892,5.632745611731755,7.371614309812535,5.189153745036666,5.49083262056134,1.9323854,1.0092573165893557,0.0,36.0,2023-06-27_15h07.28.705
HT,mid,4,53,False,1.0,52.0,0.0,1.0,0,0,0.71836615,,,,,,,,3.0,-1.0,2023-06-27_15h07.28.705
HT,mid,4,54,True,1.0,53.0,0.0,0.0,0,0,0.700969,,,,-6.247175511048207,1.8951535931956027,,0.9980065822601318,0.0,54.0,2023-06-27_15h07.28.705
HT,mid,4,55,False,1.0,54.0,0.0,1.0,0,0,0.6649761,,,,,,,,3.0,-1.0,2023-06-27_15h07.28.705
HT,mid,4,56,False,1.0,55.0,0.0,1.0,0,0,0.8632679,,,,,,,,3.0,-1.0,2023-06-27_15h07.28.705
HT,mid,4,57,False,1.0,56.0,0.0,1.0,0,0,0.8585329,,,,,,,,3.0,-1.0,2023-06-27_15h07.28.705
HT,mid,4,58,False,1.0,57.0,0.0,1.0,0,0,0.982008,,,,,,,,3.0,-1.0,2023-06-27_15h07.28.705
HT,mid,4,59,True,1.0,58.0,1.0,1.0,1,0,1.6292448,0.27139282,4.651845320506701,6.583921651707566,6.64180524952669,-5.496980862527495,12.243698,1.0085867643356323,0.0,7.0,2023-06-27_15h07.28.705
HT,mid,4,60,False,1.0,59.0,1.0,0.0,0,1,0.75228906,0.29577208,-11.815389871574526,-0.4904501456125275,,,,,3.0,-1.0,2023-06-27_15h07.28.705
HT,mid,4,61,False,1.0,60.0,0.0,1.0,0,0,0.7201481,,,,,,,,3.0,-1.0,2023-06-27_15h07.28.705
HT,mid,4,62,True,1.0,61.0,0.0,0.0,0,0,1.0624161,,,,-6.928733591060057,10.204894096720585,,0.9902483820915222,0.0,64.0,2023-06-27_15h07.28.705
HT,mid,4,63,True,1.0,62.0,1.0,1.0,1,0,0.36963677,0.43187785,6.747405033578409,-1.857765703077756,6.772913974360315,-1.794702555809491,0.06802695,0.9929296374320984,0.0,18.0,2023-06-27_15h07.28.705
HT,mid,4,64,True,1.0,63.0,0.0,0.0,0,0,0.60459805,,,,-6.673981615978962,7.849521828118761,,1.0129791498184204,0.0,68.0,2023-06-27_15h07.28.705
HT,mid,4,65,False,1.0,64.0,0.0,1.0,0,0,0.5462351,,,,,,,,3.0,-1.0,2023-06-27_15h07.28.705
HT,mid,4,66,True,1.0,65.0,1.0,1.0,1,0,0.87089705,0.39974904,7.222993053566314,1.991524833699354,-4.1384224524854,-2.836387355754314,12.344655,1.0092573165893557,0.0,36.0,2023-06-27_15h07.28.705
HT,mid,4,67,False,1.0,66.0,0.0,1.0,0,0,0.44163394,,,,,,,,3.0,-1.0,2023-06-27_15h07.28.705
HT,mid,4,68,True,1.0,67.0,0.0,0.0,0,0,1.2700441,,,,6.690546955020812,3.4691905728993957,,1.0256428718566897,0.0,60.0,2023-06-27_15h07.28.705
HT,mid,4,69,False,1.0,68.0,0.0,1.0,0,0,2.2409399,,,,,,,,3.0,-1.0,2023-06-27_15h07.28.705
HT,mid,4,70,False,1.0,69.0,0.0,1.0,0,0,1.3665979,,,,,,,,3.0,-1.0,2023-06-27_15h07.28.705
HT,mid,4,71,False,1.0,70.0,0.0,1.0,0,0,0.895138,,,,,,,,3.0,-1.0,2023-06-27_15h07.28.705
HT,mid,4,72,True,1.0,71.0,1.0,1.0,1,0,0.6163969,0.9358959,6.152920008593528,8.233617596040613,-2.327777902987954,7.786388553283343,8.492482,1.0037909746170044,0.0,7.0,2023-06-27_15h07.28.705
HT,mid,4,73,True,1.0,72.0,1.0,1.0,1,0,0.5080359,1.1041551,1.6348338187084253,8.93213750039785,2.760944866113939,9.24857759347045,1.1697266,0.9902483820915222,0.0,64.0,2023-06-27_15h07.28.705
HT,mid,4,74,False,1.0,73.0,0.0,1.0,0,0,0.83385897,,,,,,,,3.0,-1.0,2023-06-27_15h07.28.705
HT,mid,4,75,False,1.0,74.0,0.0,1.0,0,0,0.85789514,,,,,,,,3.0,-1.0,2023-06-27_15h07.28.705
HT,mid,4,76,True,1.0,75.0,1.0,1.0,1,0,1.229218,0.47982907,10.344039434736946,3.12104638117063,12.256915128760502,3.1959675597551938,1.9143423,1.0085867643356323,0.0,7.0,2023-06-27_15h07.28.705
HT,mid,4,77,True,1.0,76.0,1.0,1.0,1,0,0.673548,0.58407116,8.991586002896337,-2.2144567180686847,10.352828797255343,-4.094270741957846,2.3209229,0.9917131662368774,0.0,21.0,2023-06-27_15h07.28.705
HT,mid,4,78,True,1.0,77.0,1.0,1.0,1,0,0.634707,0.5753751,12.112632384066968,2.318491597441039,11.603540952865185,2.2347911558801408,0.5159262,0.9947356581687928,0.0,30.0,2023-06-27_15h07.28.705
HT,mid,4,79,True,1.0,78.0,0.0,0.0,0,0,0.97200084,,,,5.938012711661058,3.527261901388448,,0.99186372756958,0.0,28.0,2023-06-27_15h07.28.705
HT,mid,4,80,True,1.0,79.0,0.0,0.0,0,0,0.7695651,,,,-3.013705435582888,-4.520829925127353,,0.9998947381973268,0.0,12.0,2023-06-27_15h07.28.705
HT,mid,4,81,False,1.0,80.0,0.0,1.0,0,0,0.80684996,,,,,,,,3.0,-1.0,2023-06-27_15h07.28.705
HT,mid,4,82,False,1.0,81.0,0.0,1.0,0,0,0.89132595,,,,,,,,3.0,-1.0,2023-06-27_15h07.28.705
HT,mid,4,83,False,1.0,82.0,1.0,0.0,0,1,1.4686148,0.45594597,7.341890058563291,4.681569571755944,,,,,3.0,-1.0,2023-06-27_15h07.28.705
HT,mid,4,84,True,1.0,83.0,0.0,0.0,0,0,0.5623982,,,,-1.4967998442618156,-6.412568487761031,,0.9998947381973268,0.0,72.0,2023-06-27_15h07.28.705
HT,mid,4,85,False,1.0,84.0,0.0,1.0,0,0,0.5765841,,,,,,,,3.0,-1.0,2023-06-27_15h07.28.705
HT,mid,4,86,True,1.0,85.0,1.0,1.0,1,0,0.601918,0.43229485,-10.418350062860055,1.6199716930838028,-10.399342034223409,1.7258489803407058,0.10757,1.0005711317062378,0.0,22.0,2023-06-27_15h07.28.705
HT,mid,4,87,True,1.0,86.0,0.0,0.0,0,0,0.672981,,,,-1.7307835976382109,-4.800790206669416,,0.9991062879562378,0.0,1.0,2023-06-27_15h07.28.705
HT,mid,4,88,False,1.0,87.0,1.0,0.0,0,1,0.929584,0.7280278,10.96824871097107,5.692194114230244,,,,,3.0,-1.0,2023-06-27_15h07.28.705
HT,mid,4,89,False,1.0,88.0,0.0,1.0,0,0,0.53406,,,,,,,,3.0,-1.0,2023-06-27_15h07.28.705
HT,mid,4,90,True,1.0,89.0,1.0,1.0,1,0,0.57633615,0.3119912,3.046735753047519,-6.643370154206055,2.0472798629941007,-6.362755538032803,1.0381024,1.020013451576233,0.0,28.0,2023-06-27_15h07.28.705
HT,mid,4,91,False,1.0,90.0,0.0,1.0,0,0,0.75341105,,,,,,,,3.0,-1.0,2023-06-27_15h07.28.705
HT,mid,4,92,True,1.0,91.0,1.0,1.0,1,0,0.89308,0.4161911,-9.199655761641049,3.760117783029378,1.993161693700195,5.159130671307499,11.279911,0.9902483820915222,0.0,64.0,2023-06-27_15h07.28.705
HT,mid,4,93,False,1.0,92.0,0.0,1.0,0,0,0.61338186,,,,,,,,3.0,-1.0,2023-06-27_15h07.28.705
HT,mid,4,94,False,1.0,93.0,0.0,1.0,0,0,0.972059,,,,,,,,3.0,-1.0,2023-06-27_15h07.28.705
HT,mid,4,95,False,1.0,94.0,0.0,1.0,0,0,0.5279379,,,,,,,,3.0,-1.0,2023-06-27_15h07.28.705
HT,mid,4,96,False,1.0,95.0,0.0,1.0,0,0,0.5532,,,,,,,,3.0,-1.0,2023-06-27_15h07.28.705
HT,mid,4,97,False,1.0,96.0,0.0,1.0,0,0,0.49391985,,,,,,,,3.0,-1.0,2023-06-27_15h07.28.705
HT,mid,4,98,True,1.0,97.0,0.0,0.0,0,0,0.61873007,,,,6.990979918032969,-2.2015738554549835,,0.9939753413200378,0.0,5.0,2023-06-27_15h07.28.705
HT,mid,4,99,True,1.0,98.0,1.0,1.0,1,0,0.402493,0.51962304,6.286679139215126,6.108333631719661,-9.084790622644336,4.722012528046588,15.433858,0.954700529575348,0.0,20.0,2023-06-27_15h07.28.705
HT,mid,4,100,True,1.0,99.0,0.0,0.0,0,0,0.8075361,,,,2.085904698578338,6.15806718498381,,0.9917131662368774,0.0,21.0,2023-06-27_15h07.28.705
SR,mid,4,1,False,1.0,0.0,1.0,0.0,0,1,1.0644319,0.38387012,11.250629097838887,1.6199716930838028,,,,,3.0,-1.0,2023-06-26_15h47.16.779
SR,mid,4,2,True,1.0,1.0,1.0,1.0,1,0,0.651875,0.3839078,-0.8917275374773228,-10.760178952226362,9.157950041504211,-7.24096781623515,10.648046,0.990826427936554,0.0,37.0,2023-06-26_15h47.16.779
SR,mid,4,3,True,1.0,2.0,1.0,1.0,1,0,0.6034701,0.31978488,-9.838727163499795,-0.995762416849677,9.57745683760046,-2.310595042380863,19.460651,1.005864500999451,0.0,16.0,2023-06-26_15h47.16.779
SR,mid,4,4,False,1.0,3.0,0.0,1.0,0,0,0.321759,,,,,,,,3.0,-1.0,2023-06-26_15h47.16.779
SR,mid,4,5,False,1.0,4.0,0.0,1.0,0,0,0.39569902,,,,,,,,3.0,-1.0,2023-06-26_15h47.16.779
SR,mid,4,6,False,1.0,5.0,0.0,1.0,0,0,0.40741587,,,,,,,,3.0,-1.0,2023-06-26_15h47.16.779
SR,mid,4,7,True,1.0,6.0,1.0,1.0,1,0,0.5254791,0.3513751,3.3885646424138267,7.148682425443204,5.396511099414069,7.700274310398118,2.082331,0.9886699318885804,0.0,74.0,2023-06-26_15h47.16.779
SR,mid,4,8,True,1.0,7.0,1.0,1.0,1,0,0.2681489,0.4480481,-7.564821942932621,-3.92360116490022,-7.818681349090295,-4.34065594509857,0.48824102,0.9886699318885804,0.0,74.0,2023-06-26_15h47.16.779
SR,mid,4,9,True,1.0,8.0,1.0,1.0,1,0,0.32241297,0.44800496,9.348277017887266,-3.9533254161494646,-3.2811832734863726,-6.594605009570261,12.9026985,0.9900014996528624,0.0,51.0,2023-06-26_15h47.16.779
SR,mid,4,10,True,1.0,9.0,1.0,1.0,1,0,0.5136061,0.35957813,-12.3355642684363,2.021249084948598,-12.323164226251809,0.3882771933488901,1.633019,1.0085867643356323,0.0,7.0,2023-06-26_15h47.16.779
SR,mid,4,11,True,1.0,10.0,1.0,1.0,1,0,0.616318,0.4076922,-6.539335274833701,6.494748897959834,-7.719073273942863,7.836896053647632,1.7869362,1.0057801008224487,0.0,33.0,2023-06-26_15h47.16.779
SR,mid,4,12,False,1.0,11.0,0.0,1.0,0,0,0.3406489,,,,,,,,3.0,-1.0,2023-06-26_15h47.16.779
SR,mid,4,13,False,1.0,12.0,0.0,1.0,0,0,0.47442794,,,,,,,,3.0,-1.0,2023-06-26_15h47.16.779
SR,mid,4,14,True,1.0,13.0,0.0,0.0,0,0,0.40281105,,,,-9.626701295855035,3.844298821256554,,0.9917131662368774,0.0,17.0,2023-06-26_15h47.16.779
SR,mid,4,15,True,1.0,14.0,1.0,1.0,1,0,0.4335091,0.4797721,9.645519530379708,1.3821776830898502,10.157204928081264,-0.0160851872449024,1.4889463,0.9947356581687928,0.0,30.0,2023-06-26_15h47.16.779
SR,mid,4,16,True,1.0,15.0,1.0,1.0,1,0,0.3895111,0.37586808,0.8620032862280786,10.4480743141093,5.971714075538369,-1.3482012539091024,12.855398,1.0037909746170044,0.0,63.0,2023-06-26_15h47.16.779
SR,mid,4,17,False,1.0,16.0,1.0,0.0,0,1,0.6358669,,,,,,,,3.0,-1.0,2023-06-26_15h47.16.779
SR,mid,4,18,False,1.0,17.0,0.0,1.0,0,0,0.39385796,,,,,,,,3.0,-1.0,2023-06-26_15h47.16.779
SR,mid,4,19,True,1.0,18.0,1.0,1.0,1,0,0.58314514,0.38349795,-3.1804948836691183,-7.178406676692448,-2.2642170287625927,-7.360212542803399,0.9341405,1.0000357627868652,0.0,44.0,2023-06-26_15h47.16.779
SR,mid,4,20,True,1.0,19.0,1.0,1.0,1,0,0.7640691,0.31986904,-3.983049667398708,-7.416200686686402,-5.240440772570756,-6.948831764401615,1.3414418,1.0302560329437256,0.0,62.0,2023-06-26_15h47.16.779
SR,mid,4,21,True,1.0,20.0,1.0,1.0,1,0,0.31328607,0.4076519,-5.6476077373563776,-5.900263872974953,-7.559388099414853,-7.529438940291866,2.5117953,0.990826427936554,0.0,47.0,2023-06-26_15h47.16.779
SR,mid,4,22,False,1.0,21.0,0.0,1.0,0,0,0.320179,,,,,,,,3.0,-1.0,2023-06-26_15h47.16.779
SR,mid,4,23,False,1.0,22.0,0.0,1.0,0,0,0.22674012,,,,,,,,3.0,-1.0,2023-06-26_15h47.16.779
SR,mid,4,24,True,1.0,23.0,1.0,1.0,1,0,0.4703791,0.3838799,9.318552766638025,0.341828889366307,-6.979076217942163,3.4263362970871403,16.58695,1.01024067401886,0.0,13.0,2023-06-26_15h47.16.779
SR,mid,4,25,True,1.0,24.0,1.0,1.0,1,0,0.44042015,0.3603289,-5.365227350488559,7.62427044543111,0.9700113472843048,9.303025305214517,6.5538893,0.9991062879562378,0.0,0.0,2023-06-26_15h47.16.779
SR,mid,4,26,False,1.0,25.0,1.0,0.0,0,1,1.251636,0.36023998,13.851501082147744,-2.808941743053567,,,,,3.0,-1.0,2023-06-26_15h47.16.779
SR,mid,4,27,False,1.0,26.0,0.0,1.0,0,0,0.3544681,,,,,,,,3.0,-1.0,2023-06-26_15h47.16.779
SR,mid,4,28,True,1.0,27.0,1.0,1.0,1,0,0.521883,0.40011692,7.5499598173079985,0.3566910149909291,8.029246124587505,-0.0893113023083237,0.65470105,0.9869959950447084,0.0,0.0,2023-06-26_15h47.16.779
SR,mid,4,29,False,1.0,28.0,0.0,1.0,0,0,0.5993638,,,,,,,,3.0,-1.0,2023-06-26_15h47.16.779
SR,mid,4,30,False,1.0,29.0,0.0,1.0,0,0,0.34743214,,,,,,,,3.0,-1.0,2023-06-26_15h47.16.779
SR,mid,4,31,True,1.0,30.0,1.0,1.0,1,0,0.752825,0.35183907,7.237855179190936,5.929988124224196,1.2947152326231055,-5.967071862838645,13.298908,1.000043272972107,0.0,4.0,2023-06-26_15h47.16.779
SR,mid,4,32,False,1.0,31.0,0.0,1.0,0,0,0.30649114,,,,,,,,3.0,-1.0,2023-06-26_15h47.16.779
SR,mid,4,33,False,1.0,32.0,0.0,1.0,0,0,0.20260715,,,,,,,,3.0,-1.0,2023-06-26_15h47.16.779
SR,mid,4,34,False,1.0,33.0,0.0,1.0,0,0,0.2353921,,,,,,,,3.0,-1.0,2023-06-26_15h47.16.779
SR,mid,4,35,True,1.0,34.0,1.0,1.0,1,0,0.45522285,0.5845361,8.218755470415992,-0.9363139143511888,-4.313023069440597,6.283709391307061,14.462856,0.990826427936554,0.0,37.0,2023-06-26_15h47.16.779
SR,mid,4,36,False,1.0,35.0,1.0,0.0,0,1,0.71991706,0.43200302,8.70920561602852,2.2144567180686847,,,,,3.0,-1.0,2023-06-26_15h47.16.779
SR,mid,4,37,True,1.0,36.0,1.0,1.0,1,0,0.67173195,0.37583518,-6.256954887965882,-7.386476435437157,-6.138318812285297,-10.187111100647694,2.8031464,1.011980414390564,0.0,23.0,2023-06-26_15h47.16.779
SR,mid,4,38,True,1.0,37.0,0.0,0.0,0,0,0.39197397,,,,5.336821679770113,-4.81435316111703,,0.9917131662368774,0.0,21.0,2023-06-26_15h47.16.779
SR,mid,4,39,False,1.0,38.0,0.0,1.0,0,0,0.42874002,,,,,,,,3.0,-1.0,2023-06-26_15h47.16.779
SR,mid,4,40,True,1.0,39.0,1.0,1.0,1,0,0.38191915,0.51973295,-2.4225264768133936,9.496898274133486,-2.523594413328912,10.299227131518553,0.80866945,0.990826427936554,0.0,37.0,2023-06-26_15h47.16.779
SR,mid,4,41,True,1.0,40.0,1.0,1.0,1,0,0.4488082,0.35981107,-2.630596235558102,8.724067741653142,5.956950812292404,1.000884919337003,11.549611,1.006396770477295,0.0,55.0,2023-06-26_15h47.16.779
SR,mid,4,42,False,1.0,41.0,0.0,1.0,0,0,0.26884007,,,,,,,,3.0,-1.0,2023-06-26_15h47.16.779
SR,mid,4,43,True,1.0,42.0,1.0,1.0,1,0,0.45466304,0.31161284,1.4713504368375827,-7.891788706674307,2.913641962236167,4.443113332501511,12.418938,0.990826427936554,0.0,37.0,2023-06-26_15h47.16.779
SR,mid,4,44,False,1.0,43.0,0.0,1.0,0,0,0.33254504,,,,,,,,3.0,-1.0,2023-06-26_15h47.16.779
SR,mid,4,45,False,1.0,44.0,0.0,1.0,0,0,0.47915387,,,,,,,,3.0,-1.0,2023-06-26_15h47.16.779
SR,mid,4,46,False,1.0,45.0,1.0,0.0,0,1,0.6330619,0.3198452,-0.3715531406155511,-7.089233922944716,,,,,3.0,-1.0,2023-06-26_15h47.16.779
SR,mid,4,47,True,1.0,46.0,0.0,0.0,0,0,1.4835138,,,,-4.044335706389759,7.644943641737438,,0.9929296374320984,0.0,66.0,2023-06-26_15h47.16.779
SR,mid,4,48,False,1.0,47.0,1.0,0.0,0,1,0.525084,0.34341192,-9.45231189725962,-1.0254866680989212,,,,,3.0,-1.0,2023-06-26_15h47.16.779
SR,mid,4,49,True,1.0,48.0,0.0,0.0,0,0,0.6890881,,,,-6.37826334392008,-4.265182482558613,,1.0256428718566897,0.0,60.0,2023-06-26_15h47.16.779
SR,mid,4,50,False,1.0,49.0,0.0,1.0,0,0,0.55557084,,,,,,,,3.0,-1.0,2023-06-26_15h47.16.779
SR,mid,4,51,True,1.0,50.0,1.0,1.0,1,0,0.38501596,0.4239049,-11.48842310783284,2.288767346191795,-10.977195873782806,3.046626402276036,0.9141683,1.0005711317062378,0.0,22.0,2023-06-26_15h47.16.779
SR,mid,4,52,False,1.0,51.0,0.0,1.0,0,0,0.508842,,,,,,,,3.0,-1.0,2023-06-26_15h47.16.779
SR,mid,4,53,False,1.0,52.0,0.0,1.0,0,0,0.45916796,,,,,,,,3.0,-1.0,2023-06-26_15h47.16.779
SR,mid,4,54,False,1.0,53.0,0.0,1.0,0,0,0.2751639,,,,,,,,3.0,-1.0,2023-06-26_15h47.16.779
SR,mid,4,55,False,1.0,54.0,0.0,1.0,0,0,0.53408,,,,,,,,3.0,-1.0,2023-06-26_15h47.16.779
SR,mid,4,56,True,1.0,55.0,1.0,1.0,1,0,0.47226596,0.41585588,-7.014923294821606,-9.764416535376684,10.20143113988115,-1.4354445957614186,19.125235,0.9929296374320984,0.0,18.0,2023-06-26_15h47.16.779
SR,mid,4,57,False,1.0,56.0,0.0,1.0,0,0,0.33668303,,,,,,,,3.0,-1.0,2023-06-26_15h47.16.779
SR,mid,4,58,True,1.0,57.0,1.0,1.0,1,0,0.5574961,0.30356002,-9.987348419746017,5.261192471116204,-2.9765772566516797,-5.554617551751387,12.889246,0.9929296374320984,0.0,66.0,2023-06-26_15h47.16.779
SR,mid,4,59,True,1.0,58.0,0.0,0.0,0,0,0.41743994,,,,1.8697550989254643,7.8514101072287295,,0.997423529624939,0.0,0.0,2023-06-26_15h47.16.779
SR,mid,4,60,False,1.0,59.0,0.0,1.0,0,0,0.53890896,,,,,,,,3.0,-1.0,2023-06-26_15h47.16.779
SR,mid,4,61,True,1.0,60.0,1.0,1.0,1,0,0.47791004,0.3278172,1.991524833699354,-5.246330345491582,2.3479023017303784,-4.487921244143231,0.83796734,0.966286599636078,0.0,32.0,2023-06-26_15h47.16.779
SR,mid,4,62,True,1.0,61.0,1.0,1.0,1,0,0.5701201,0.37565303,-5.172019717368473,9.229380012890292,-5.490407105540133,7.6698867583585555,1.5916625,1.0125123262405396,0.0,74.0,2023-06-26_15h47.16.779
SR,mid,4,63,False,1.0,62.0,0.0,1.0,0,0,0.4033959,,,,,,,,3.0,-1.0,2023-06-26_15h47.16.779
SR,mid,4,64,True,1.0,63.0,1.0,1.0,1,0,0.6420331,0.38385797,11.33980185158662,-3.2399433861676057,8.943347316059665,-1.0931313585913047,3.2174208,0.9939753413200378,0.0,70.0,2023-06-26_15h47.16.779
SR,mid,4,65,False,1.0,64.0,0.0,1.0,0,0,0.8803201,,,,,,,,3.0,-1.0,2023-06-26_15h47.16.779
SR,mid,4,66,True,1.0,65.0,1.0,1.0,1,0,0.510654,0.49580002,10.760178952226362,3.834428411152488,-5.47221352509772,-10.623305494830102,21.737448,1.0037909746170044,0.0,7.0,2023-06-26_15h47.16.779
SR,mid,4,67,True,1.0,66.0,1.0,1.0,1,0,0.4337511,0.416106,6.048885129221174,-8.902413249148605,7.448320480173928,-10.202690201851851,1.9102721,0.992530107498169,0.0,31.0,2023-06-26_15h47.16.779
SR,mid,4,68,True,1.0,67.0,1.0,1.0,1,0,0.6925199,0.29545403,8.218755470415992,-2.883252371176677,8.4479332729475,-5.126476242674847,2.2549005,0.9929296374320984,0.0,18.0,2023-06-26_15h47.16.779
SR,mid,4,69,True,1.0,68.0,1.0,1.0,1,0,0.45846105,0.288229,2.0509733361978424,-6.836577787326141,-0.0797043742331206,-6.494461981723763,2.1579692,1.006396770477295,0.0,55.0,2023-06-26_15h47.16.779
SR,mid,4,70,False,1.0,69.0,0.0,1.0,0,0,0.36500502,,,,,,,,3.0,-1.0,2023-06-26_15h47.16.779
SR,mid,4,71,False,1.0,70.0,0.0,1.0,0,0,0.453655,,,,,,,,3.0,-1.0,2023-06-26_15h47.16.779
SR,mid,4,72,False,1.0,71.0,0.0,1.0,0,0,0.6439061,,,,,,,,3.0,-1.0,2023-06-26_15h47.16.779
SR,mid,4,73,True,1.0,72.0,1.0,1.0,1,0,0.44737506,0.37579298,9.125345133517936,-2.229318843693307,0.8313244706873495,9.22873687155809,14.144887,0.9947356581687928,0.0,30.0,2023-06-26_15h47.16.779
SR,mid,4,74,True,1.0,73.0,1.0,1.0,1,0,0.6531372,0.288311,8.35251460103759,-1.7685929493300234,8.14284125149607,-3.1859847238804457,1.4328163,0.9947356581687928,0.0,30.0,2023-06-26_15h47.16.779
SR,mid,4,75,False,1.0,74.0,0.0,1.0,0,0,0.8790741,,,,,,,,3.0,-1.0,2023-06-26_15h47.16.779
SR,mid,4,76,True,1.0,75.0,0.0,0.0,0,0,0.4137149,,,,8.041611069245048,-7.321610333930336,,0.9786678552627563,0.0,52.0,2023-06-26_15h47.16.779
SR,mid,4,77,True,1.0,76.0,1.0,1.0,1,0,0.34875703,0.39177918,7.906650832298929,-4.518086189885103,8.940891905361337,-5.729785933517646,1.5930697,0.9917131662368774,0.0,21.0,2023-06-26_15h47.16.779
SR,mid,4,78,False,1.0,77.0,0.0,1.0,0,0,1.2632959,,,,,,,,3.0,-1.0,2023-06-26_15h47.16.779
SR,mid,4,79,True,1.0,78.0,1.0,1.0,1,0,0.59182405,0.383811,-4.295154305515772,8.64975711353003,-3.858655236154095,7.080686146432591,1.6286544,1.0065877437591553,0.0,54.0,2023-06-26_15h47.16.779
SR,mid,4,80,True,1.0,79.0,1.0,1.0,1,0,0.79745483,0.32786512,8.976723877271715,5.751642616728732,6.980383659851708,-4.292035830860703,10.240159,1.0065877437591553,0.0,54.0,2023-06-26_15h47.16.779
SR,mid,4,81,False,1.0,80.0,0.0,1.0,0,0,0.38660312,,,,,,,,3.0,-1.0,2023-06-26_15h47.16.779
SR,mid,4,82,False,1.0,81.0,0.0,1.0,0,0,0.3187101,,,,,,,,3.0,-1.0,2023-06-26_15h47.16.779
SR,mid,4,83,True,1.0,82.0,1.0,1.0,1,0,0.599751,0.2717929,0.3864152662401731,-5.929988124224196,-1.8239291045315449,-4.726891140405865,2.5165582,0.966286599636078,0.0,32.0,2023-06-26_15h47.16.779
SR,mid,4,84,True,1.0,83.0,1.0,1.0,1,0,0.61322,0.32790494,9.110483007893317,-1.0254866680989212,-9.972612139813297,3.9974511484784783,19.73308,1.000043272972107,0.0,28.0,2023-06-26_15h47.16.779
SR,mid,4,85,False,1.0,84.0,0.0,1.0,0,0,0.2930839,,,,,,,,3.0,-1.0,2023-06-26_15h47.16.779
SR,mid,4,86,False,1.0,85.0,0.0,1.0,0,0,0.29911804,,,,,,,,3.0,-1.0,2023-06-26_15h47.16.779
SR,mid,4,87,False,1.0,86.0,1.0,0.0,0,1,0.40957284,0.4638071,-5.81109111922722,6.762267159203032,,,,,3.0,-1.0,2023-06-26_15h47.16.779
SR,mid,4,88,False,1.0,87.0,0.0,1.0,0,0,0.7111769,,,,,,,,3.0,-1.0,2023-06-26_15h47.16.779
SR,mid,4,89,False,1.0,88.0,1.0,0.0,0,1,0.69266987,0.44752097,13.539396444030684,-4.250567928641906,,,,,3.0,-1.0,2023-06-26_15h47.16.779
SR,mid,4,90,True,1.0,89.0,1.0,1.0,1,0,0.47547793,0.3358431,-5.320640973614692,2.1550082155701964,-5.793279460849707,3.2554639200378865,1.1976602,0.9981024265289308,0.0,56.0,2023-06-26_15h47.16.779
SR,mid,4,91,True,1.0,90.0,1.0,1.0,1,0,0.44076204,0.79993606,9.942762042872149,-0.668795653107992,-4.425465286941173,-2.877651977600891,14.537022,1.0092586278915403,0.0,31.0,2023-06-26_15h47.16.779
SR,mid,4,92,False,1.0,91.0,0.0,1.0,0,0,0.3105452,,,,,,,,3.0,-1.0,2023-06-26_15h47.16.779
SR,mid,4,93,True,1.0,92.0,1.0,1.0,1,0,0.582731,0.44790983,5.573297109233267,5.127433340494606,7.478273475009163,4.772487148965091,1.937762,1.0129791498184204,0.0,68.0,2023-06-26_15h47.16.779
SR,mid,4,94,True,1.0,93.0,1.0,1.0,1,0,0.6207309,0.47141504,8.099858465419015,6.420438269836724,8.948343782597052,6.251539725661361,0.8651324,1.0037909746170044,0.0,63.0,2023-06-26_15h47.16.779
SR,mid,4,95,False,1.0,94.0,0.0,1.0,0,0,0.290555,,,,,,,,3.0,-1.0,2023-06-26_15h47.16.779
SR,mid,4,96,True,1.0,95.0,0.0,0.0,0,0,0.57512,,,,1.5403572236789802,-8.405099963611177,,1.000043272972107,0.0,28.0,2023-06-26_15h47.16.779
SR,mid,4,97,False,1.0,96.0,0.0,1.0,0,0,0.544549,,,,,,,,3.0,-1.0,2023-06-26_15h47.16.779
SR,mid,4,98,True,1.0,97.0,1.0,1.0,1,0,0.38842392,0.480237,9.407725520385757,-1.991524833699354,9.906635085538763,-3.0397880217576176,1.1609335,0.9727528691291808,0.0,0.0,2023-06-26_15h47.16.779
SR,mid,4,99,False,1.0,98.0,0.0,1.0,0,0,0.362159,,,,,,,,3.0,-1.0,2023-06-26_15h47.16.779
SR,mid,4,100,False,1.0,99.0,0.0,1.0,0,0,0.3714509,,,,,,,,3.0,-1.0,2023-06-26_15h47.16.779
DH,high,16,1,False,1.0,0.0,0.0,1.0,0,0,0.35718894,,,,,,,,15.0,-1.0,2023-06-26_13h48.14.556
DH,high,16,2,False,1.0,1.0,0.0,1.0,0,0,0.34920502,,,,,,,,15.0,-1.0,2023-06-26_13h48.14.556
DH,high,16,3,False,1.0,2.0,0.0,1.0,0,0,0.260252,,,,,,,,15.0,-1.0,2023-06-26_13h48.14.556
DH,high,16,4,True,1.0,3.0,0.0,0.0,0,0,0.22904515,,,,5.635641012936184,-2.8711811559724056,,1.497239351272583,0.0,20.0,2023-06-26_13h48.14.556
DH,high,16,5,False,1.0,4.0,1.0,0.0,0,1,0.64334893,0.49599195,1.3821776830898502,7.371614309812535,,,,,15.0,-1.0,2023-06-26_13h48.14.556
DH,high,16,6,False,1.0,5.0,0.0,1.0,0,0,0.49069715,,,,,,,,15.0,-1.0,2023-06-26_13h48.14.556
DH,high,16,7,True,1.0,6.0,0.0,0.0,0,0,0.5998869,,,,-9.605864539985404,-3.3309129085560816,,1.491304636001587,0.0,65.0,2023-06-26_13h48.14.556
DH,high,16,8,False,1.0,7.0,0.0,1.0,0,0,0.49340606,,,,,,,,15.0,-1.0,2023-06-26_13h48.14.556
DH,high,16,9,True,1.0,8.0,0.0,0.0,0,0,0.553951,,,,2.97719509613221,7.450113454714046,,1.4970649480819702,0.0,36.0,2023-06-26_13h48.14.556
DH,high,16,10,False,1.0,9.0,0.0,1.0,0,0,0.360497,,,,,,,,15.0,-1.0,2023-06-26_13h48.14.556
DH,high,16,11,True,1.0,10.0,1.0,1.0,1,0,0.5924051,0.535861,5.58815923485789,10.477798565358544,5.039867875313932,9.662573175066363,0.982454,1.5169181823730469,0.0,56.0,2023-06-26_13h48.14.556
DH,high,16,12,True,1.0,11.0,0.0,0.0,0,0,0.43842387,,,,-2.0131408393870127,-9.98020133814858,,1.514548420906067,0.0,6.0,2023-06-26_13h48.14.556
DH,high,16,13,False,1.0,12.0,0.0,1.0,0,0,0.332649,,,,,,,,15.0,-1.0,2023-06-26_13h48.14.556
DH,high,16,14,True,1.0,13.0,1.0,1.0,1,0,0.638535,0.4559059,-5.067984837996118,4.295154305515772,-4.389844467086013,3.755944307569032,0.8663843,1.4989203214645386,0.0,65.0,2023-06-26_13h48.14.556
DH,high,16,15,True,1.0,14.0,1.0,1.0,1,0,0.6795881,0.5514581,1.1443836730958974,10.477798565358544,-0.0803890937922198,11.17959480744556,1.41159,1.4970649480819702,0.0,44.0,2023-06-26_13h48.14.556
DH,high,16,16,True,1.0,15.0,0.0,0.0,0,0,0.4056468,,,,2.371356058125631,-12.051700970740788,,1.497239351272583,0.0,20.0,2023-06-26_13h48.14.556
DH,high,16,17,False,1.0,16.0,0.0,1.0,0,0,0.357023,,,,,,,,15.0,-1.0,2023-06-26_13h48.14.556
DH,high,16,18,True,1.0,17.0,1.0,1.0,1,0,0.73303604,0.55173206,-4.428913436137369,-9.45231189725962,-5.111722979309097,-11.365733422935058,2.031603,1.515953540802002,0.0,38.0,2023-06-26_13h48.14.556
DH,high,16,19,True,1.0,18.0,1.0,1.0,1,0,0.522352,0.4319601,-0.8768654118527007,-5.900263872974953,-0.46135431953542,-5.637739810867242,0.49149603,1.4945101737976074,0.0,59.0,2023-06-26_13h48.14.556
DH,high,16,20,False,1.0,19.0,0.0,1.0,0,0,0.46888494,,,,,,,,15.0,-1.0,2023-06-26_13h48.14.556
DH,high,16,21,False,1.0,20.0,0.0,1.0,0,0,0.43106508,,,,,,,,15.0,-1.0,2023-06-26_13h48.14.556
DH,high,16,22,False,1.0,21.0,0.0,1.0,0,0,0.40281296,,,,,,,,15.0,-1.0,2023-06-26_13h48.14.556
DH,high,16,23,True,1.0,22.0,0.0,0.0,0,0,0.42600918,,,,-0.5446549848315779,-10.611262803649712,,1.503100037574768,0.0,26.0,2023-06-26_13h48.14.556
DH,high,16,24,False,1.0,23.0,0.0,1.0,0,0,0.37241197,,,,,,,,15.0,-1.0,2023-06-26_13h48.14.556
DH,high,16,25,False,1.0,24.0,0.0,1.0,0,0,0.32651687,,,,,,,,15.0,-1.0,2023-06-26_13h48.14.556
DH,high,16,26,True,1.0,25.0,1.0,1.0,1,0,0.53712606,0.6560669,-11.116869967217289,0.8322790349788347,4.288494837510644,6.860784713943292,16.54292,1.4957720041275024,0.0,6.0,2023-06-26_13h48.14.556
DH,high,16,27,False,1.0,26.0,0.0,1.0,0,0,0.3457451,,,,,,,,15.0,-1.0,2023-06-26_13h48.14.556
DH,high,16,28,True,1.0,27.0,0.0,0.0,0,0,0.37701416,,,,-0.4964677303104003,-7.489034920957709,,1.4957720041275024,0.0,6.0,2023-06-26_13h48.14.556
DH,high,16,29,False,1.0,28.0,0.0,1.0,0,0,0.40364313,,,,,,,,15.0,-1.0,2023-06-26_13h48.14.556
DH,high,16,30,True,1.0,29.0,0.0,0.0,0,0,0.31666803,,,,3.0756977329478272,-7.327203827679357,,1.503100037574768,0.0,26.0,2023-06-26_13h48.14.556
DH,high,16,31,True,1.0,30.0,0.0,0.0,0,0,0.63815904,,,,-5.073758704513494,-3.511539735149208,,1.498714804649353,0.0,15.0,2023-06-26_13h48.14.556
DH,high,16,32,False,1.0,31.0,0.0,1.0,0,0,0.33059502,,,,,,,,15.0,-1.0,2023-06-26_13h48.14.556
DH,high,16,33,False,1.0,32.0,0.0,1.0,0,0,0.31836987,,,,,,,,15.0,-1.0,2023-06-26_13h48.14.556
DH,high,16,34,False,1.0,33.0,0.0,1.0,0,0,0.35276985,,,,,,,,15.0,-1.0,2023-06-26_13h48.14.556
DH,high,16,35,True,1.0,34.0,1.0,1.0,1,0,0.567796,0.7674711,-1.3673155574652285,10.730454700977118,-2.0197321441966274,10.525152707893064,0.6839564,1.4970649480819702,0.0,36.0,2023-06-26_13h48.14.556
DH,high,16,36,True,1.0,35.0,0.0,0.0,0,0,0.421911,,,,-12.257353976331151,0.7828390567550183,,1.480380654335022,0.0,5.0,2023-06-26_13h48.14.556
DH,high,16,37,True,1.0,36.0,1.0,1.0,1,0,0.53326297,0.583838,9.259104264139534,0.7579684068557243,9.09364240210619,1.1606504935391952,0.43535098,1.5050394535064695,0.0,60.0,2023-06-26_13h48.14.556
DH,high,16,38,True,1.0,37.0,0.0,0.0,0,0,0.36237907,,,,-9.116746022630338,-0.0120940300986658,,1.5024561882019043,0.0,57.0,2023-06-26_13h48.14.556
DH,high,16,39,True,1.0,38.0,1.0,1.0,1,0,0.6284249,0.799958,-0.7282441556064803,6.539335274833701,-1.7766884064095745,6.743311893029334,1.068102,1.4988467693328855,0.0,60.0,2023-06-26_13h48.14.556
DH,high,16,40,False,1.0,39.0,0.0,1.0,0,0,0.40882993,,,,,,,,15.0,-1.0,2023-06-26_13h48.14.556
DH,high,16,41,False,1.0,40.0,0.0,1.0,0,0,0.41666198,,,,,,,,15.0,-1.0,2023-06-26_13h48.14.556
DH,high,16,42,False,1.0,41.0,0.0,1.0,0,0,0.39405704,,,,,,,,15.0,-1.0,2023-06-26_13h48.14.556
DH,high,16,43,False,1.0,42.0,0.0,1.0,0,0,0.28772688,,,,,,,,15.0,-1.0,2023-06-26_13h48.14.556
DH,high,16,44,False,1.0,43.0,0.0,1.0,0,0,0.43729496,,,,,,,,15.0,-1.0,2023-06-26_13h48.14.556
DH,high,16,45,False,1.0,44.0,0.0,1.0,0,0,0.34481502,,,,,,,,15.0,-1.0,2023-06-26_13h48.14.556
DH,high,16,46,True,1.0,45.0,0.0,0.0,0,0,0.33569908,,,,-0.5272992974395596,7.172986245712897,,1.497239351272583,0.0,20.0,2023-06-26_13h48.14.556
DH,high,16,47,False,1.0,46.0,0.0,1.0,0,0,0.34035587,,,,,,,,15.0,-1.0,2023-06-26_13h48.14.556
DH,high,16,48,False,1.0,47.0,0.0,1.0,0,0,0.37038994,,,,,,,,15.0,-1.0,2023-06-26_13h48.14.556
DH,high,16,49,False,1.0,48.0,0.0,1.0,0,0,0.41045213,,,,,,,,15.0,-1.0,2023-06-26_13h48.14.556
DH,high,16,50,True,1.0,49.0,1.0,1.0,1,0,0.63635397,0.615474,-8.560584359782299,7.04464754607085,-10.872286667749371,6.259711333233888,2.44133,1.4957720041275024,0.0,6.0,2023-06-26_13h48.14.556
DH,high,16,51,False,1.0,50.0,0.0,1.0,0,0,0.23610711,,,,,,,,15.0,-1.0,2023-06-26_13h48.14.556
DH,high,16,52,False,1.0,51.0,0.0,1.0,0,0,0.37860203,,,,,,,,15.0,-1.0,2023-06-26_13h48.14.556
DH,high,16,53,False,1.0,52.0,0.0,1.0,0,0,0.28634906,,,,,,,,15.0,-1.0,2023-06-26_13h48.14.556
DH,high,16,54,True,1.0,53.0,1.0,1.0,1,0,0.5488858,0.631897,6.375851892962857,8.887551123523984,6.747415695220656,8.85084685880395,0.3733723,1.4988467693328855,0.0,50.0,2023-06-26_13h48.14.556
DH,high,16,55,True,1.0,54.0,1.0,1.0,1,0,0.7636299,0.60039806,1.7388686980807797,4.681569571755944,1.604047496482269,4.76021239329997,0.15608154,1.4957720041275024,0.0,6.0,2023-06-26_13h48.14.556
DH,high,16,56,True,1.0,55.0,0.0,0.0,0,0,0.2527628,,,,5.2092730474809015,-3.1823412175316026,,1.5148485898971558,0.0,41.0,2023-06-26_13h48.14.556
DH,high,16,57,False,1.0,56.0,0.0,1.0,0,0,0.30183697,,,,,,,,15.0,-1.0,2023-06-26_13h48.14.556
DH,high,16,58,True,1.0,57.0,0.0,0.0,0,0,0.3264668,,,,1.5536357024077634,-11.040198855410866,,1.5018826723098757,0.0,71.0,2023-06-26_13h48.14.556
DH,high,16,59,False,1.0,58.0,0.0,1.0,0,0,0.37993407,,,,,,,,15.0,-1.0,2023-06-26_13h48.14.556
DH,high,16,60,False,1.0,59.0,0.0,1.0,0,0,0.6373658,,,,,,,,15.0,-1.0,2023-06-26_13h48.14.556
DH,high,16,61,True,1.0,60.0,1.0,1.0,1,0,0.59272194,0.50386715,-0.7282441556064803,-8.293066098539104,-0.6722924757551039,-8.656479910468969,0.36769578,1.5050394535064695,0.0,60.0,2023-06-26_13h48.14.556
DH,high,16,62,True,1.0,61.0,1.0,1.0,1,0,0.617697,0.624027,7.0297854204462284,7.416200686686402,7.53796612658381,7.701783420446871,0.58292806,1.5024561882019043,0.0,42.0,2023-06-26_13h48.14.556
DH,high,16,63,False,1.0,62.0,0.0,1.0,0,0,0.28952408,,,,,,,,15.0,-1.0,2023-06-26_13h48.14.556
DH,high,16,64,False,1.0,63.0,0.0,1.0,0,0,0.34355593,,,,,,,,15.0,-1.0,2023-06-26_13h48.14.556
DH,high,16,65,False,1.0,64.0,0.0,1.0,0,0,0.39700413,,,,,,,,15.0,-1.0,2023-06-26_13h48.14.556
DH,high,16,66,True,1.0,65.0,0.0,0.0,0,0,0.716068,,,,-0.3140106333999199,-8.051640157750102,,1.492204666137695,0.0,47.0,2023-06-26_13h48.14.556
DH,high,16,67,False,1.0,66.0,0.0,1.0,0,0,0.26852798,,,,,,,,15.0,-1.0,2023-06-26_13h48.14.556
DH,high,16,68,False,1.0,67.0,0.0,1.0,0,0,0.34256887,,,,,,,,15.0,-1.0,2023-06-26_13h48.14.556
DH,high,16,69,True,1.0,68.0,1.0,1.0,1,0,1.18872,0.77569294,7.980961460422039,-4.295154305515772,-5.615864248779103,5.9442493660255655,17.021135,1.4945224523544312,0.0,12.0,2023-06-26_13h48.14.556
DH,high,16,70,False,1.0,69.0,0.0,1.0,0,0,0.37725902,,,,,,,,15.0,-1.0,2023-06-26_13h48.14.556
DH,high,16,71,True,1.0,70.0,1.0,1.0,1,0,0.8519161,0.41580987,-2.1698703411948186,-6.405576144212102,-4.92174350484684,1.228564828294244,8.114981,1.491206407546997,0.0,66.0,2023-06-26_13h48.14.556
DH,high,16,72,False,1.0,71.0,0.0,1.0,0,0,0.41590714,,,,,,,,15.0,-1.0,2023-06-26_13h48.14.556
DH,high,16,73,True,1.0,72.0,1.0,1.0,1,0,0.88071084,0.56017303,2.273905220567173,-7.668856822304976,2.119595454096028,-6.958053703426813,0.72736,1.4988467693328855,0.0,60.0,2023-06-26_13h48.14.556
DH,high,16,74,False,1.0,73.0,0.0,1.0,0,0,0.2551129,,,,,,,,15.0,-1.0,2023-06-26_13h48.14.556
DH,high,16,75,True,1.0,74.0,0.0,0.0,0,0,0.472286,,,,-6.283850528883029,-7.749128365626282,,1.4957720041275024,0.0,6.0,2023-06-26_13h48.14.556
DH,high,16,76,True,1.0,75.0,0.0,0.0,0,0,0.23359704,,,,-0.164577049758497,-11.62282489472444,,1.500314235687256,0.0,20.0,2023-06-26_13h48.14.556
DH,high,16,77,False,1.0,76.0,0.0,1.0,0,0,0.40646195,,,,,,,,15.0,-1.0,2023-06-26_13h48.14.556
DH,high,16,78,False,1.0,77.0,0.0,1.0,0,0,0.31038904,,,,,,,,15.0,-1.0,2023-06-26_13h48.14.556
DH,high,16,79,True,1.0,78.0,1.0,1.0,1,0,0.63078094,0.57579684,-3.834428411152488,-6.346127641713614,-4.0282853787986,-6.907457009775194,0.5938612,1.4988467693328855,0.0,60.0,2023-06-26_13h48.14.556
DH,high,16,80,True,1.0,79.0,0.0,0.0,0,0,0.320426,,,,-2.527274112860669,-6.037816762232162,,1.4855709075927734,0.0,37.0,2023-06-26_13h48.14.556
DH,high,16,81,True,1.0,80.0,1.0,1.0,1,0,0.97148204,0.54349804,4.622121069257457,4.681569571755944,6.484042161754228,3.835336767272472,2.0452042,1.504594087600708,0.0,15.0,2023-06-26_13h48.14.556
DH,high,16,82,False,1.0,81.0,0.0,1.0,0,0,0.427274,,,,,,,,15.0,-1.0,2023-06-26_13h48.14.556
DH,high,16,83,False,1.0,82.0,0.0,1.0,0,0,0.3977611,,,,,,,,15.0,-1.0,2023-06-26_13h48.14.556
DH,high,16,84,True,1.0,83.0,0.0,0.0,0,0,0.3970909,,,,3.3711359648510046,8.66067824099721,,1.491304636001587,0.0,65.0,2023-06-26_13h48.14.556
DH,high,16,85,True,1.0,84.0,1.0,1.0,1,0,0.56449795,0.5437281,8.694343490403897,-0.3566910149909291,8.335683812856393,-1.3755651733278418,1.080158,1.5050394535064695,0.0,60.0,2023-06-26_13h48.14.556
DH,high,16,86,True,1.0,85.0,1.0,1.0,1,0,0.7754791,0.70380306,10.96824871097107,-4.176257300518795,11.419933642994836,-4.388036351139998,0.49886838,1.5018826723098757,0.0,16.0,2023-06-26_13h48.14.556
DH,high,16,87,True,1.0,86.0,0.0,0.0,0,0,0.5399821,,,,-7.53277062800529,2.980499719433682,,1.5023231506347656,0.0,24.0,2023-06-26_13h48.14.556
DH,high,16,88,False,1.0,87.0,0.0,1.0,0,0,0.32853794,,,,,,,,15.0,-1.0,2023-06-26_13h48.14.556
DH,high,16,89,True,1.0,88.0,1.0,1.0,1,0,0.5090661,0.41547704,5.186881842993094,2.957562999299788,5.472235291312565,2.878906529236267,0.29599565,1.4945101737976074,0.0,46.0,2023-06-26_13h48.14.556
DH,high,16,90,True,1.0,89.0,0.0,0.0,0,0,0.25247192,,,,1.2445586228680532,-6.141997233958899,,1.5023231506347656,0.0,24.0,2023-06-26_13h48.14.556
DH,high,16,91,False,1.0,90.0,0.0,1.0,0,0,0.34192896,,,,,,,,15.0,-1.0,2023-06-26_13h48.14.556
DH,high,16,92,True,1.0,91.0,1.0,1.0,1,0,0.65287495,0.39973497,-0.4607258943632834,-10.269728806613834,-11.99361850824658,-2.0266899907813816,14.17587,1.499178767204285,0.0,35.0,2023-06-26_13h48.14.556
DH,high,16,93,True,1.0,92.0,0.0,0.0,0,0,0.26995397,,,,-10.58137754187346,-4.281267841955063,,1.497239351272583,0.0,20.0,2023-06-26_13h48.14.556
DH,high,16,94,False,1.0,93.0,0.0,1.0,0,0,0.41807008,,,,,,,,15.0,-1.0,2023-06-26_13h48.14.556
DH,high,16,95,True,1.0,94.0,0.0,0.0,0,0,0.41187406,,,,-11.480241218128516,5.245311382824681,,1.497310996055603,0.0,20.0,2023-06-26_13h48.14.556
DH,high,16,96,True,1.0,95.0,0.0,0.0,0,0,0.48453903,,,,-5.017527606516062,-6.203946043404668,,1.500314235687256,0.0,20.0,2023-06-26_13h48.14.556
DH,high,16,97,True,1.0,96.0,1.0,1.0,1,0,0.70296216,0.47985315,10.700730449727873,-1.932076331200866,8.242944927158952,1.5725367541505737,4.28054,1.5016756057739258,0.0,63.0,2023-06-26_13h48.14.556
DH,high,16,98,False,1.0,97.0,0.0,1.0,0,0,0.4456029,,,,,,,,15.0,-1.0,2023-06-26_13h48.14.556
DH,high,16,99,True,1.0,98.0,1.0,1.0,1,0,0.74084187,0.57602,-9.437449771635,5.365227350488559,-8.7362054421939,5.044250114147721,0.77121335,1.480380654335022,0.0,5.0,2023-06-26_13h48.14.556
DH,high,16,100,True,1.0,99.0,1.0,1.0,1,0,0.69536614,0.680336,-9.184793636016424,8.872688997899361,-9.203708853761531,8.413061772865099,0.46001628,1.496986746788025,0.0,26.0,2023-06-26_13h48.14.556
OF,low,16,1,True,1.0,0.0,0.0,0.0,0,0,0.6419761,,,,-5.309634473756876,5.176154219343661,,0.480796605348587,0.0,31.0,2023-06-29_11h54.59.359
OF,low,16,2,False,1.0,1.0,0.0,1.0,0,0,0.6071341,,,,,,,,15.0,-1.0,2023-06-29_11h54.59.359
OF,low,16,3,False,1.0,2.0,0.0,1.0,0,0,0.629277,,,,,,,,15.0,-1.0,2023-06-29_11h54.59.359
OF,low,16,4,True,1.0,3.0,0.0,0.0,0,0,0.22370696,,,,9.612236548727902,-0.4321665283194575,,0.6391835808753967,0.0,34.0,2023-06-29_11h54.59.359
OF,low,16,5,False,1.0,4.0,0.0,1.0,0,0,0.18040586,,,,,,,,15.0,-1.0,2023-06-29_11h54.59.359
OF,low,16,6,False,1.0,5.0,1.0,0.0,0,1,0.45875788,0.22403812,3.4628752705369363,4.934225707374519,,,,,15.0,-1.0,2023-06-29_11h54.59.359
OF,low,16,7,False,1.0,6.0,1.0,0.0,0,1,0.28508592,0.54397106,-8.828102621025495,-4.592396818008212,,,,,15.0,-1.0,2023-06-29_11h54.59.359
OF,low,16,8,True,1.0,7.0,0.0,0.0,0,0,0.70112896,,,,-4.391453985544384,5.046508698447084,,0.5488704442977905,0.0,30.0,2023-06-29_11h54.59.359
OF,low,16,9,False,1.0,8.0,0.0,1.0,0,0,0.31523013,,,,,,,,15.0,-1.0,2023-06-29_11h54.59.359
OF,low,16,10,False,1.0,9.0,0.0,1.0,0,0,0.21396089,,,,,,,,15.0,-1.0,2023-06-29_11h54.59.359
OF,low,16,11,True,1.0,10.0,0.0,0.0,0,0,0.36157417,,,,2.456549687604804,11.231113616086263,,0.5488704442977905,0.0,67.0,2023-06-29_11h54.59.359
OF,low,16,12,False,1.0,11.0,0.0,1.0,0,0,0.27530003,,,,,,,,15.0,-1.0,2023-06-29_11h54.59.359
OF,low,16,13,False,1.0,12.0,0.0,1.0,0,0,0.18859982,,,,,,,,15.0,-1.0,2023-06-29_11h54.59.359
OF,low,16,14,True,1.0,13.0,0.0,0.0,0,0,0.64308906,,,,-10.667296152071172,2.0437531617679183,,0.5251665115356445,0.0,14.0,2023-06-29_11h54.59.359
OF,low,16,15,True,1.0,14.0,0.0,0.0,0,0,0.39274883,,,,-1.54538646827986,-8.780007622195173,,0.5975151658058167,0.0,6.0,2023-06-29_11h54.59.359
OF,low,16,16,True,1.0,15.0,0.0,0.0,0,0,0.943172,,,,-1.7783679983626772,-10.017643887984434,,0.5472683310508728,0.0,23.0,2023-06-29_11h54.59.359
OF,low,16,17,False,1.0,16.0,0.0,1.0,0,0,0.47227812,,,,,,,,15.0,-1.0,2023-06-29_11h54.59.359
OF,low,16,18,True,1.0,17.0,0.0,0.0,0,0,0.41133404,,,,7.128421644959822,5.6902399669892585,,0.7461138367652893,0.0,53.0,2023-06-29_11h54.59.359
OF,low,16,19,False,1.0,18.0,0.0,1.0,0,0,0.548687,,,,,,,,15.0,-1.0,2023-06-29_11h54.59.359
OF,low,16,20,False,1.0,19.0,0.0,1.0,0,0,0.69094706,,,,,,,,15.0,-1.0,2023-06-29_11h54.59.359
OF,low,16,21,True,1.0,20.0,0.0,0.0,0,0,0.19865394,,,,1.2541885217258226,-8.6785393339215,,0.480796605348587,0.0,36.0,2023-06-29_11h54.59.359
OF,low,16,22,True,1.0,21.0,0.0,0.0,0,0,0.32645082,,,,8.529607411341365,8.805282359181478,,0.5041901469230652,0.0,40.0,2023-06-29_11h54.59.359
OF,low,16,23,False,1.0,22.0,0.0,1.0,0,0,0.25080204,,,,,,,,15.0,-1.0,2023-06-29_11h54.59.359
OF,low,16,24,True,1.0,23.0,0.0,0.0,0,0,0.1794331,,,,8.743767688088516,6.2653114772288125,,0.468918114900589,0.0,21.0,2023-06-29_11h54.59.359
OF,low,16,25,True,1.0,24.0,0.0,0.0,0,0,0.19966507,,,,4.100693355893305,-7.794493973319346,,0.7434694766998291,0.0,68.0,2023-06-29_11h54.59.359
OF,low,16,26,True,1.0,25.0,0.0,0.0,0,0,0.34344912,,,,6.0729779668183,3.168174815282977,,0.8074294924736023,0.0,37.0,2023-06-29_11h54.59.359
OF,low,16,27,True,1.0,26.0,1.0,1.0,1,0,0.43862915,0.40019417,-4.205981551768039,8.679481364779274,-6.58727969287452,8.763851764638735,2.3827922,0.7545811533927917,0.0,13.0,2023-06-29_11h54.59.359
OF,low,16,28,True,1.0,27.0,1.0,1.0,1,0,0.35291195,0.43136406,-3.2399433861676057,8.575446485406921,-3.825399051410121,7.87884814220513,0.90994924,0.5187864303588867,0.0,39.0,2023-06-29_11h54.59.359
OF,low,16,29,False,1.0,28.0,0.0,1.0,0,0,0.33833504,,,,,,,,15.0,-1.0,2023-06-29_11h54.59.359
OF,low,16,30,False,1.0,29.0,0.0,1.0,0,0,0.39074707,,,,,,,,15.0,-1.0,2023-06-29_11h54.59.359
OF,low,16,31,True,1.0,30.0,0.0,0.0,0,0,0.340106,,,,-4.446384219775838,4.557416756695131,,0.566596508026123,0.0,9.0,2023-06-29_11h54.59.359
OF,low,16,32,False,1.0,31.0,0.0,1.0,0,0,0.6101098,,,,,,,,15.0,-1.0,2023-06-29_11h54.59.359
OF,low,16,33,False,1.0,32.0,0.0,1.0,0,0,0.3302102,,,,,,,,15.0,-1.0,2023-06-29_11h54.59.359
OF,low,16,34,False,1.0,33.0,0.0,1.0,0,0,0.542439,,,,,,,,15.0,-1.0,2023-06-29_11h54.59.359
OF,low,16,35,True,1.0,34.0,0.0,0.0,0,0,0.4272821,,,,-2.3225518737062307,-4.456302623175082,,0.8074294924736023,0.0,37.0,2023-06-29_11h54.59.359
OF,low,16,36,True,1.0,35.0,0.0,0.0,0,0,0.28712487,,,,-1.3285076227023402,5.565862857390036,,0.480796605348587,0.0,36.0,2023-06-29_11h54.59.359
OF,low,16,37,True,1.0,36.0,0.0,0.0,0,0,0.508049,,,,-2.28392176874024,11.011455651113062,,0.8329626321792603,0.0,61.0,2023-06-29_11h54.59.359
OF,low,16,38,True,1.0,37.0,0.0,0.0,0,0,0.3317678,,,,3.6370626019387022,-6.874734583659152,,0.4687917530536651,0.0,39.0,2023-06-29_11h54.59.359
OF,low,16,39,False,1.0,38.0,0.0,1.0,0,0,0.5044179,,,,,,,,15.0,-1.0,2023-06-29_11h54.59.359
OF,low,16,40,True,1.0,39.0,0.0,0.0,0,0,0.39826894,,,,2.747673627460488,11.111107395967078,,0.5251665115356445,0.0,14.0,2023-06-29_11h54.59.359
OF,low,16,41,True,1.0,40.0,0.0,0.0,0,0,0.501323,,,,1.2705794783780222,-5.527335451424685,,0.7461138367652893,0.0,53.0,2023-06-29_11h54.59.359
OF,low,16,42,True,1.0,41.0,0.0,0.0,0,0,0.46043205,,,,8.061534280184707,0.3035302728613598,,0.909707009792328,0.0,66.0,2023-06-29_11h54.59.359
OF,low,16,43,True,1.0,42.0,1.0,1.0,1,0,0.49260998,0.4235742,7.84720232980044,4.50322406426048,7.303788838887762,4.1399258815434825,0.6536695,0.5251665115356445,0.0,14.0,2023-06-29_11h54.59.359
OF,low,16,44,False,1.0,43.0,0.0,1.0,0,0,0.3308499,,,,,,,,15.0,-1.0,2023-06-29_11h54.59.359
OF,low,16,45,True,1.0,44.0,0.0,0.0,0,0,0.31127882,,,,4.750167250476794,-4.719279945800573,,0.5495201945304871,0.0,22.0,2023-06-29_11h54.59.359
OF,low,16,46,False,1.0,45.0,0.0,1.0,0,0,0.49017286,,,,,,,,15.0,-1.0,2023-06-29_11h54.59.359
OF,low,16,47,True,1.0,46.0,0.0,0.0,0,0,0.63833594,,,,-3.6873741808943854,-6.964991745699061,,0.6391835808753967,0.0,34.0,2023-06-29_11h54.59.359
OF,low,16,48,True,1.0,47.0,1.0,1.0,1,0,0.466707,0.42355394,7.014923294821606,3.150770632419873,6.671151837076484,2.7207701922271776,0.55052626,0.909707009792328,0.0,66.0,2023-06-29_11h54.59.359
OF,low,16,49,True,1.0,48.0,0.0,0.0,0,0,0.468292,,,,9.60378264781919,-7.520401618330731,,0.7787971496582031,0.0,37.0,2023-06-29_11h54.59.359
OF,low,16,50,False,1.0,49.0,0.0,1.0,0,0,0.52592015,,,,,,,,15.0,-1.0,2023-06-29_11h54.59.359
OF,low,16,51,False,1.0,50.0,0.0,1.0,0,0,0.71806717,,,,,,,,15.0,-1.0,2023-06-29_11h54.59.359
OF,low,16,52,False,1.0,51.0,0.0,1.0,0,0,0.39790988,,,,,,,,15.0,-1.0,2023-06-29_11h54.59.359
OF,low,16,53,True,1.0,52.0,1.0,1.0,1,0,0.67695117,0.40011,2.912976622425921,5.81109111922722,-0.8768987921157906,-9.607919703218196,15.877942,0.4986608028411865,0.0,52.0,2023-06-29_11h54.59.359
OF,low,16,54,False,1.0,53.0,0.0,1.0,0,0,0.403718,,,,,,,,15.0,-1.0,2023-06-29_11h54.59.359
OF,low,16,55,True,1.0,54.0,0.0,0.0,0,0,0.6207421,,,,3.8078681966745127,-3.4644419921694745,,0.5002890825271606,0.0,1.0,2023-06-29_11h54.59.359
OF,low,16,56,False,1.0,55.0,0.0,1.0,0,0,1.0765898,,,,,,,,15.0,-1.0,2023-06-29_11h54.59.359
OF,low,16,57,False,1.0,56.0,0.0,1.0,0,0,0.73034716,,,,,,,,15.0,-1.0,2023-06-29_11h54.59.359
OF,low,16,58,False,1.0,57.0,0.0,1.0,0,0,0.411906,,,,,,,,15.0,-1.0,2023-06-29_11h54.59.359
OF,low,16,59,False,1.0,58.0,0.0,1.0,0,0,0.5098729,,,,,,,,15.0,-1.0,2023-06-29_11h54.59.359
OF,low,16,60,True,1.0,59.0,0.0,0.0,0,0,0.4532628,,,,-8.276624274485535,-3.304211109811832,,0.5323181748390198,0.0,31.0,2023-06-29_11h54.59.359
OF,low,16,61,False,1.0,60.0,0.0,1.0,0,0,0.42089295,,,,,,,,15.0,-1.0,2023-06-29_11h54.59.359
OF,low,16,62,False,1.0,61.0,0.0,1.0,0,0,0.664181,,,,,,,,15.0,-1.0,2023-06-29_11h54.59.359
OF,low,16,63,True,1.0,62.0,0.0,0.0,0,0,0.4857781,,,,-3.706265062454039,-8.466557066943624,,0.6543968319892883,0.0,67.0,2023-06-29_11h54.59.359
OF,low,16,64,False,1.0,63.0,0.0,1.0,0,0,0.68287206,,,,,,,,15.0,-1.0,2023-06-29_11h54.59.359
OF,low,16,65,False,1.0,64.0,0.0,1.0,0,0,0.54162383,,,,,,,,15.0,-1.0,2023-06-29_11h54.59.359
OF,low,16,66,True,1.0,65.0,0.0,0.0,0,0,0.49115586,,,,5.733016126159393,-4.846253757136656,,0.5149855017662048,0.0,39.0,2023-06-29_11h54.59.359
OF,low,16,67,False,1.0,66.0,0.0,1.0,0,0,0.30530906,,,,,,,,15.0,-1.0,2023-06-29_11h54.59.359
OF,low,16,68,False,1.0,67.0,0.0,1.0,0,0,1.185961,,,,,,,,15.0,-1.0,2023-06-29_11h54.59.359
OF,low,16,69,True,1.0,68.0,0.0,0.0,0,0,0.30420995,,,,-5.644083566036096,-1.8797411548965277,,0.5488704442977905,0.0,67.0,2023-06-29_11h54.59.359
OF,low,16,70,True,1.0,69.0,0.0,0.0,0,0,0.30494404,,,,-4.692233178822121,3.4242803026409603,,0.5488704442977905,0.0,30.0,2023-06-29_11h54.59.359
OF,low,16,71,False,1.0,70.0,0.0,1.0,0,0,0.32284594,,,,,,,,15.0,-1.0,2023-06-29_11h54.59.359
OF,low,16,72,False,1.0,71.0,0.0,1.0,0,0,0.526474,,,,,,,,15.0,-1.0,2023-06-29_11h54.59.359
OF,low,16,73,False,1.0,72.0,0.0,1.0,0,0,0.3607161,,,,,,,,15.0,-1.0,2023-06-29_11h54.59.359
OF,low,16,74,False,1.0,73.0,0.0,1.0,0,0,0.65709996,,,,,,,,15.0,-1.0,2023-06-29_11h54.59.359
OF,low,16,75,True,1.0,74.0,0.0,0.0,0,0,0.34362292,,,,-2.067824318940653,-6.561546041155065,,0.6201356053352356,0.0,3.0,2023-06-29_11h54.59.359
OF,low,16,76,True,1.0,75.0,0.0,0.0,0,0,0.31828904,,,,4.862575936843308,-11.462800190247606,,0.480796605348587,0.0,36.0,2023-06-29_11h54.59.359
OF,low,16,77,False,1.0,76.0,0.0,1.0,0,0,0.4745121,,,,,,,,15.0,-1.0,2023-06-29_11h54.59.359
OF,low,16,78,False,1.0,77.0,0.0,1.0,0,0,0.324533,,,,,,,,15.0,-1.0,2023-06-29_11h54.59.359
OF,low,16,79,True,1.0,78.0,1.0,1.0,1,0,0.65686893,0.36788106,-4.176257300518795,8.887551123523984,-5.287199980212065,8.641467758212254,1.1378711,0.8231127262115479,0.0,46.0,2023-06-29_11h54.59.359
OF,low,16,80,True,1.0,79.0,0.0,0.0,0,0,0.2472291,,,,4.196565542902057,-3.8871250256487655,,0.480796605348587,0.0,31.0,2023-06-29_11h54.59.359
OF,low,16,81,True,1.0,80.0,0.0,0.0,0,0,0.30496597,,,,4.658402833735593,-3.0005711088100986,,0.5294628739356995,0.0,4.0,2023-06-29_11h54.59.359
OF,low,16,82,False,1.0,81.0,0.0,1.0,0,0,0.5220361,,,,,,,,15.0,-1.0,2023-06-29_11h54.59.359
OF,low,16,83,True,1.0,82.0,0.0,0.0,0,0,0.35595083,,,,-5.504439982235104,-5.161937859927882,,0.5488704442977905,0.0,30.0,2023-06-29_11h54.59.359
OF,low,16,84,False,1.0,83.0,0.0,1.0,0,0,0.5478909,,,,,,,,15.0,-1.0,2023-06-29_11h54.59.359
OF,low,16,85,True,1.0,84.0,0.0,0.0,0,0,0.7865279,,,,-1.1136834365918031,-11.357169372878309,,0.7091094851493835,0.0,35.0,2023-06-29_11h54.59.359
OF,low,16,86,True,1.0,85.0,1.0,1.0,1,0,0.35685992,0.37567616,-2.660320486807346,5.08284696362074,-3.7624284379176633,5.409468844030657,1.1494884,0.7545811533927917,0.0,13.0,2023-06-29_11h54.59.359
OF,low,16,87,True,1.0,86.0,0.0,0.0,0,0,0.374588,,,,10.965584583645612,2.0028050100981543,,0.4908503293991089,0.0,23.0,2023-06-29_11h54.59.359
OF,low,16,88,False,1.0,87.0,1.0,0.0,0,1,0.489784,0.38372493,0.966038165600433,8.367376726662213,,,,,15.0,-1.0,2023-06-29_11h54.59.359
OF,low,16,89,True,1.0,88.0,0.0,0.0,0,0,0.37642002,,,,0.2255903455990155,5.063253415851436,,0.4907183647155761,0.0,8.0,2023-06-29_11h54.59.359
OF,low,16,90,False,1.0,89.0,0.0,1.0,0,0,0.29171085,,,,,,,,15.0,-1.0,2023-06-29_11h54.59.359
OF,low,16,91,False,1.0,90.0,0.0,1.0,0,0,0.3314159,,,,,,,,15.0,-1.0,2023-06-29_11h54.59.359
OF,low,16,92,True,1.0,91.0,1.0,1.0,1,0,0.51923513,0.24793792,1.7537308237054017,-6.821715661701519,1.714855162824884,-6.222723856481301,0.60025203,0.5323181748390198,0.0,31.0,2023-06-29_11h54.59.359
OF,low,16,93,False,1.0,92.0,0.0,1.0,0,0,0.541693,,,,,,,,15.0,-1.0,2023-06-29_11h54.59.359
OF,low,16,94,False,1.0,93.0,0.0,1.0,0,0,0.37208605,,,,,,,,15.0,-1.0,2023-06-29_11h54.59.359
OF,low,16,95,True,1.0,94.0,0.0,0.0,0,0,0.39749599,,,,0.9894495028626906,-8.238896523832949,,0.4687917530536651,0.0,39.0,2023-06-29_11h54.59.359
OF,low,16,96,True,1.0,95.0,1.0,1.0,1,0,0.34092498,0.43193388,1.4416261855883383,6.554197400458322,-2.964927375168278,-4.719608772734187,12.104397,0.4908503293991089,0.0,32.0,2023-06-29_11h54.59.359
OF,low,16,97,True,1.0,96.0,0.0,0.0,0,0,0.4856701,,,,3.22668567521861,-11.979848706870156,,0.4986608028411865,0.0,52.0,2023-06-29_11h54.59.359
OF,low,16,98,False,1.0,97.0,0.0,1.0,0,0,0.369133,,,,,,,,15.0,-1.0,2023-06-29_11h54.59.359
OF,low,16,99,True,1.0,98.0,1.0,1.0,1,0,0.56301,0.39229202,-1.902352079951622,7.19326880231707,-2.888396855305224,6.455138248214089,1.2317146,0.7141953706741333,0.0,64.0,2023-06-29_11h54.59.359
OF,low,16,100,False,1.0,99.0,0.0,1.0,0,0,0.3267231,,,,,,,,15.0,-1.0,2023-06-29_11h54.59.359
RS,low,2,1,True,1.0,0.0,1.0,1.0,1,0,1.4687209,1.1914909,1.709144446831535,9.15506938476718,1.757718883938149,11.486913828238334,2.3323503,0.5975151658058167,0.0,6.0,2023-06-27_09h13.59.270
RS,low,2,2,True,1.0,1.0,1.0,1.0,1,0,1.13675,1.215657,8.857826872274739,0.4904501456125275,9.240070009864654,7.021002364183808,6.5417295,0.566596508026123,0.0,9.0,2023-06-27_09h13.59.270
RS,low,2,3,False,1.0,2.0,0.0,1.0,0,0,1.2209408,,,,,,,,1.0,-1.0,2023-06-27_09h13.59.270
RS,low,2,4,False,1.0,3.0,1.0,0.0,0,1,1.6612952,0.92787504,7.62427044543111,5.558434983608644,,,,,1.0,-1.0,2023-06-27_09h13.59.270
RS,low,2,5,True,1.0,4.0,0.0,0.0,0,0,1.0219698,,,,5.86811949937119,-0.9918623472893292,,0.5209433436393738,0.0,31.0,2023-06-27_09h13.59.270
RS,low,2,6,False,1.0,5.0,1.0,0.0,0,1,1.208802,0.8475268,5.439537978611669,-7.817478078551195,,,,,1.0,-1.0,2023-06-27_09h13.59.270
RS,low,2,7,False,1.0,6.0,0.0,1.0,0,0,0.688364,,,,,,,,1.0,-1.0,2023-06-27_09h13.59.270
RS,low,2,8,True,1.0,7.0,1.0,1.0,1,0,0.9689479,0.6959169,-6.420438269836724,7.609408319806488,-7.94369997187249,8.362163210365495,1.6991074,0.5986795425415039,0.0,63.0,2023-06-27_09h13.59.270
RS,low,2,9,True,1.0,8.0,1.0,1.0,1,0,0.821995,1.0719662,-9.378001269136512,-5.484124355485535,-8.570119271725883,-4.568264499332242,1.2212586,0.4986608028411865,0.0,59.0,2023-06-27_09h13.59.270
RS,low,2,10,False,1.0,9.0,0.0,1.0,0,0,1.077357,,,,,,,,1.0,-1.0,2023-06-27_09h13.59.270
RS,low,2,11,False,1.0,10.0,0.0,1.0,0,0,0.921355,,,,,,,,1.0,-1.0,2023-06-27_09h13.59.270
RS,low,2,12,False,1.0,11.0,1.0,0.0,0,1,2.523977,1.528003,-6.123195757344283,5.781366867977976,,,,,1.0,-1.0,2023-06-27_09h13.59.270
RS,low,2,13,False,1.0,12.0,1.0,0.0,0,1,1.0752499,1.2004759,4.072222421146441,-12.36528851968554,,,,,1.0,-1.0,2023-06-27_09h13.59.270
RS,low,2,14,True,1.0,13.0,1.0,1.0,1,0,2.01296,0.4877739,5.974574501098062,-8.12958271666826,-2.296892700513125,-7.626032878113884,8.28678,0.5548374652862549,0.0,45.0,2023-06-27_09h13.59.270
RS,low,2,15,True,1.0,14.0,1.0,1.0,1,0,1.12854,0.54409194,-2.2590430949425517,-8.025547837295905,-7.555884124211055,9.543724117324144,18.350363,0.8074294924736023,0.0,37.0,2023-06-27_09h13.59.270
RS,low,2,16,True,1.0,15.0,1.0,1.0,1,0,0.8061929,0.51226807,-1.0552109193481654,5.320640973614692,-0.60934878243974,5.535156331853675,0.49478266,0.5428093671798706,0.0,29.0,2023-06-27_09h13.59.270
RS,low,2,17,True,1.0,16.0,0.0,0.0,0,0,0.7109771,,,,6.530350780556747,6.935138710787552,,0.5548374652862549,0.0,24.0,2023-06-27_09h13.59.270
RS,low,2,18,False,1.0,17.0,1.0,0.0,0,1,0.61020684,0.7114899,-1.0403487937235432,9.140207259142558,,,,,1.0,-1.0,2023-06-27_09h13.59.270
RS,low,2,19,False,1.0,18.0,0.0,1.0,0,0,0.6739571,,,,,,,,1.0,-1.0,2023-06-27_09h13.59.270
RS,low,2,20,True,1.0,19.0,1.0,1.0,1,0,1.1040368,0.6081681,5.662469862981,5.692194114230244,7.271086172196216,6.696005618839556,1.8961234,0.5986795425415039,0.0,0.0,2023-06-27_09h13.59.270
RS,low,2,21,True,1.0,20.0,1.0,1.0,1,0,1.276552,0.6159849,6.212368511092016,6.286679139215126,7.927568463834489,5.22976095411504,2.0146928,0.4907183647155761,0.0,33.0,2023-06-27_09h13.59.270
RS,low,2,22,True,1.0,21.0,1.0,1.0,1,0,0.80382013,0.91994405,3.0021493761736533,10.775041077850982,4.264645680371874,12.03248443298214,1.78187,0.4907183647155761,0.0,8.0,2023-06-27_09h13.59.270
RS,low,2,23,False,1.0,22.0,0.0,1.0,0,0,1.0654159,,,,,,,,1.0,-1.0,2023-06-27_09h13.59.270
RS,low,2,24,True,1.0,23.0,1.0,1.0,1,0,0.41006398,0.69596004,-9.45231189725962,6.554197400458322,-10.371004028047896,7.309619014719049,1.1893935,0.7787971496582031,0.0,37.0,2023-06-27_09h13.59.270
RS,low,2,25,False,1.0,24.0,1.0,0.0,0,1,1.3056879,1.2084649,5.766504742353354,6.004298752347307,,,,,1.0,-1.0,2023-06-27_09h13.59.270
RS,low,2,26,False,1.0,25.0,0.0,1.0,0,0,0.46394086,,,,,,,,1.0,-1.0,2023-06-27_09h13.59.270
RS,low,2,27,True,1.0,26.0,0.0,0.0,0,0,0.45293307,,,,-3.264751404456946,-7.098852119850048,,0.6881098747253418,0.0,54.0,2023-06-27_09h13.59.270
RS,low,2,28,False,1.0,27.0,1.0,0.0,0,1,2.537514,1.0084839,7.178406676692448,5.9597123754734405,,,,,1.0,-1.0,2023-06-27_09h13.59.270
RS,low,2,29,False,1.0,28.0,1.0,0.0,0,1,2.1956828,0.39187002,8.099858465419015,-4.310016431140393,,,,,1.0,-1.0,2023-06-27_09h13.59.270
RS,low,2,30,False,1.0,29.0,0.0,1.0,0,0,2.332115,,,,,,,,1.0,-1.0,2023-06-27_09h13.59.270
RS,low,2,31,True,1.0,30.0,1.0,1.0,1,0,0.7176962,0.8320248,-2.407664351188771,6.613645902956811,6.496766262840826,8.186739496218388,9.042317,0.629048764705658,0.0,26.0,2023-06-27_09h13.59.270
RS,low,2,32,False,1.0,31.0,0.0,1.0,0,0,3.1292129,,,,,,,,1.0,-1.0,2023-06-27_09h13.59.270
RS,low,2,33,True,1.0,32.0,1.0,1.0,1,0,2.5483289,1.0403659,-1.709144446831535,-9.110483007893317,-1.322485586133523,-9.190946513285573,0.39494234,0.6391835808753967,0.0,34.0,2023-06-27_09h13.59.270
RS,low,2,34,True,1.0,33.0,1.0,1.0,1,0,2.2218568,1.2720301,4.770742325503678,-7.639132571055732,1.5245419241640723,-8.604597983090782,3.38673,0.5170249342918396,0.0,69.0,2023-06-27_09h13.59.270
RS,low,2,35,True,1.0,34.0,1.0,1.0,1,0,1.6483998,0.535728,-6.658232279830678,2.883252371176677,-7.263526542745664,-3.8107902469779815,6.721353,0.4808247089385986,0.0,58.0,2023-06-27_09h13.59.270
RS,low,2,36,False,1.0,35.0,0.0,1.0,0,0,2.091711,,,,,,,,1.0,-1.0,2023-06-27_09h13.59.270
RS,low,2,37,False,1.0,36.0,1.0,0.0,0,1,0.8734021,0.47986293,2.912976622425921,-6.925750541073873,,,,,1.0,-1.0,2023-06-27_09h13.59.270
RS,low,2,38,False,1.0,37.0,1.0,0.0,0,1,0.9654801,1.2484951,-6.0637472548457945,-0.668795653107992,,,,,1.0,-1.0,2023-06-27_09h13.59.270
RS,low,2,39,False,1.0,38.0,0.0,1.0,0,0,0.8534589,,,,,,,,1.0,-1.0,2023-06-27_09h13.59.270
RS,low,2,40,True,1.0,39.0,1.0,1.0,1,0,0.9416959,0.9040191,-6.123195757344283,-1.218694301219008,-6.950781462034275,-1.3020853244717516,0.8317765,0.6395705342292786,0.0,31.0,2023-06-27_09h13.59.270
RS,low,2,41,True,1.0,40.0,0.0,0.0,0,0,2.862377,,,,-12.412383726016117,3.758883090600409,,0.5709244012832642,0.0,39.0,2023-06-27_09h13.59.270
RS,low,2,42,False,1.0,41.0,0.0,1.0,0,0,1.665278,,,,,,,,1.0,-1.0,2023-06-27_09h13.59.270
RS,low,2,43,False,1.0,42.0,0.0,1.0,0,0,0.461025,,,,,,,,1.0,-1.0,2023-06-27_09h13.59.270
RS,low,2,44,True,1.0,43.0,1.0,1.0,1,0,2.0021012,1.088057,2.957562999299788,4.310016431140393,-1.314400074476466,-5.006200771563795,10.248979,0.7141953706741333,0.0,64.0,2023-06-27_09h13.59.270
RS,low,2,45,False,1.0,44.0,1.0,0.0,0,1,1.7604101,1.295965,-9.333414892262647,3.864152662401732,,,,,1.0,-1.0,2023-06-27_09h13.59.270
RS,low,2,46,False,1.0,45.0,1.0,0.0,0,1,1.136092,0.79242086,-7.876926581049685,6.494748897959834,,,,,1.0,-1.0,2023-06-27_09h13.59.270
RS,low,2,47,False,1.0,46.0,1.0,0.0,0,1,0.78851104,0.904006,-9.125345133517936,-4.042498169897196,,,,,1.0,-1.0,2023-06-27_09h13.59.270
RS,low,2,48,True,1.0,47.0,1.0,1.0,1,0,1.909039,1.168067,0.3566910149909291,10.16569392724148,10.429558592151508,-7.526999829109638,20.359127,0.7834367156028748,0.0,6.0,2023-06-27_09h13.59.270
RS,low,2,49,False,1.0,48.0,1.0,0.0,0,1,0.69604516,0.8002629,7.564821942932621,-2.987287250549031,,,,,1.0,-1.0,2023-06-27_09h13.59.270
RS,low,2,50,False,1.0,49.0,1.0,0.0,0,1,1.154695,0.487916,3.760117783029378,-9.987348419746017,,,,,1.0,-1.0,2023-06-27_09h13.59.270
RS,low,2,51,True,1.0,50.0,1.0,1.0,1,0,3.211961,1.1123791,-8.605170736656165,3.8492905367771098,5.231269124883688,3.4566935685142908,13.842009,0.5149855017662048,0.0,39.0,2023-06-27_09h13.59.270
RS,low,2,52,True,1.0,51.0,1.0,1.0,1,0,1.2853389,1.112463,9.214517887265668,-0.8322790349788347,11.768455968024186,-4.170019568187149,4.2027507,0.5549496412277222,0.0,65.0,2023-06-27_09h13.59.270
RS,low,2,53,False,1.0,52.0,0.0,1.0,0,0,1.2177222,,,,,,,,1.0,-1.0,2023-06-27_09h13.59.270
RS,low,2,54,False,1.0,53.0,0.0,1.0,0,0,0.4101081,,,,,,,,1.0,-1.0,2023-06-27_09h13.59.270
RS,low,2,55,False,1.0,54.0,1.0,0.0,0,1,1.440155,0.40746307,-0.029724251249244,-10.477798565358544,,,,,1.0,-1.0,2023-06-27_09h13.59.270
RS,low,2,56,False,1.0,55.0,0.0,1.0,0,0,0.79220796,,,,,,,,1.0,-1.0,2023-06-27_09h13.59.270
RS,low,2,57,True,1.0,56.0,1.0,1.0,1,0,2.521016,1.7117269,-8.040409962920528,7.11895817419396,7.111686017361825,-5.026433339545862,19.418974,0.5672717690467834,0.0,21.0,2023-06-27_09h13.59.270
RS,low,2,58,True,1.0,57.0,0.0,0.0,0,0,2.0677571,,,,-2.339129650873194,8.705882019620159,,0.5209433436393738,0.0,31.0,2023-06-27_09h13.59.270
RS,low,2,59,False,1.0,58.0,0.0,1.0,0,0,0.66024804,,,,,,,,1.0,-1.0,2023-06-27_09h13.59.270
RS,low,2,60,True,1.0,59.0,1.0,1.0,1,0,1.224652,0.87226486,6.702818656704542,-5.142295466119228,-3.318179832591498,-9.298380989999474,10.848661,0.5002890825271606,0.0,1.0,2023-06-27_09h13.59.270
RS,low,2,61,True,1.0,60.0,0.0,0.0,0,0,0.71095085,,,,1.306030537916091,-4.85217943391918,,0.5578656792640686,0.0,64.0,2023-06-27_09h13.59.270
RS,low,2,62,False,1.0,61.0,0.0,1.0,0,0,0.586082,,,,,,,,1.0,-1.0,2023-06-27_09h13.59.270
RS,low,2,63,False,1.0,62.0,0.0,1.0,0,0,0.867157,,,,,,,,1.0,-1.0,2023-06-27_09h13.59.270
RS,low,2,64,True,1.0,63.0,1.0,1.0,1,0,1.677527,2.8239188,-2.0361112105732206,11.116869967217289,10.655732414110972,0.8059519166544199,16.352306,0.5488704442977905,0.0,67.0,2023-06-27_09h13.59.270
RS,low,2,65,True,1.0,64.0,1.0,1.0,1,0,1.977726,0.65574193,-5.320640973614692,3.1804948836691183,-2.1801111015239383,5.467063484090374,3.8847554,0.4908503293991089,0.0,23.0,2023-06-27_09h13.59.270
RS,low,2,66,False,1.0,65.0,0.0,1.0,0,0,0.8174751,,,,,,,,1.0,-1.0,2023-06-27_09h13.59.270
RS,low,2,67,True,1.0,66.0,1.0,1.0,1,0,1.3166571,0.727478,-6.821715661701519,3.299391888666094,-7.514730245476248,3.575955624144178,0.74616134,0.5548374652862549,0.0,45.0,2023-06-27_09h13.59.270
RS,low,2,68,False,1.0,67.0,1.0,0.0,0,1,1.0987911,0.767951,4.949087832999141,-6.509611023584457,,,,,1.0,-1.0,2023-06-27_09h13.59.270
RS,low,2,69,False,1.0,68.0,0.0,1.0,0,0,0.637552,,,,,,,,1.0,-1.0,2023-06-27_09h13.59.270
RS,low,2,70,False,1.0,69.0,0.0,1.0,0,0,0.4849422,,,,,,,,1.0,-1.0,2023-06-27_09h13.59.270
RS,low,2,71,True,1.0,70.0,0.0,0.0,0,0,0.2369299,,,,5.802105947984058,-2.816212335578537,,0.8231127262115479,0.0,46.0,2023-06-27_09h13.59.270
RS,low,2,72,True,1.0,71.0,1.0,1.0,1,0,1.7131331,1.2719929,5.855677496101086,-1.5159368137114486,6.49895331063752,-1.0610948648324765,0.7878356,0.5488704442977905,0.0,30.0,2023-06-27_09h13.59.270
RS,low,2,73,False,1.0,72.0,1.0,0.0,0,1,1.0788479,0.43206692,2.660320486807346,-4.250567928641906,,,,,1.0,-1.0,2023-06-27_09h13.59.270
RS,low,2,74,True,1.0,73.0,1.0,1.0,1,0,0.98720694,0.57592106,4.146533049269552,-3.492599521786181,-5.0515734721708245,7.15905578495665,14.073483,0.6480472087860107,0.0,58.0,2023-06-27_09h13.59.270
RS,low,2,75,True,1.0,74.0,1.0,1.0,1,0,1.5204959,0.7679961,-4.636983194882078,-4.339740682389637,-6.253860725623853,-4.956451504484631,1.7304986,0.5428093671798706,0.0,29.0,2023-06-27_09h13.59.270
RS,low,2,76,True,1.0,75.0,0.0,0.0,0,0,0.5399649,,,,-8.76952235268226,-9.1709045058262,,0.7787971496582031,0.0,37.0,2023-06-27_09h13.59.270
RS,low,2,77,True,1.0,76.0,1.0,1.0,1,0,1.5729761,0.735831,-1.4862125624622045,10.745316826601735,-0.8980386430265497,10.909640182604749,0.6106969,0.5149855017662048,0.0,39.0,2023-06-27_09h13.59.270
RS,low,2,78,True,1.0,77.0,1.0,1.0,1,0,2.507025,0.83237696,6.3609897673382365,0.6836577787326141,5.986499505807942,0.1614872255356527,0.6425769,0.6629336476325989,0.0,41.0,2023-06-27_09h13.59.270
RS,low,2,79,True,1.0,78.0,0.0,0.0,0,0,0.61463714,,,,7.19979041011305,4.7607421196572,,0.4908503293991089,0.0,23.0,2023-06-27_09h13.59.270
RS,low,2,80,False,1.0,79.0,1.0,0.0,0,1,3.291632,1.4318368,11.800527745949903,2.437388602438016,,,,,1.0,-1.0,2023-06-27_09h13.59.270
RS,low,2,81,False,1.0,80.0,0.0,1.0,0,0,0.52057385,,,,,,,,1.0,-1.0,2023-06-27_09h13.59.270
RS,low,2,82,False,1.0,81.0,1.0,0.0,0,1,2.223687,0.81657386,10.641281947229384,2.3779400999395275,,,,,1.0,-1.0,2023-06-27_09h13.59.270
RS,low,2,83,True,1.0,82.0,0.0,0.0,0,0,2.933569,,,,6.24954944589601,8.332877819407964,,0.5709244012832642,0.0,39.0,2023-06-27_09h13.59.270
RS,low,2,84,False,1.0,83.0,1.0,0.0,0,1,0.86666703,0.71973205,-2.511699230561126,-4.250567928641906,,,,,1.0,-1.0,2023-06-27_09h13.59.270
RS,low,2,85,True,1.0,84.0,0.0,0.0,0,0,2.514757,,,,11.145861957763143,-3.1932312114550627,,0.6629336476325989,0.0,41.0,2023-06-27_09h13.59.270
RS,low,2,86,False,1.0,85.0,0.0,1.0,0,0,0.905246,,,,,,,,1.0,-1.0,2023-06-27_09h13.59.270
RS,low,2,87,True,1.0,86.0,0.0,0.0,0,0,1.8740132,,,,-7.651108234857536,-2.6744989347611985,,0.5187864303588867,0.0,39.0,2023-06-27_09h13.59.270
RS,low,2,88,False,1.0,87.0,0.0,1.0,0,0,1.2385421,,,,,,,,1.0,-1.0,2023-06-27_09h13.59.270
RS,low,2,89,False,1.0,88.0,1.0,0.0,0,1,1.090291,0.87988806,1.4119019343390944,11.815389871574526,,,,,1.0,-1.0,2023-06-27_09h13.59.270
RS,low,2,90,False,1.0,89.0,1.0,0.0,0,1,0.8592329,1.551682,5.320640973614692,-0.65393352748337,,,,,1.0,-1.0,2023-06-27_09h13.59.270
RS,low,2,91,False,1.0,90.0,0.0,1.0,0,0,3.537614,,,,,,,,1.0,-1.0,2023-06-27_09h13.59.270
RS,low,2,92,True,1.0,91.0,1.0,1.0,1,0,1.970509,1.2957809,-5.944850249848818,9.675243781628954,3.758147980502145,-4.826033102376104,17.448072,0.5323181748390198,0.0,31.0,2023-06-27_09h13.59.270
RS,low,2,93,True,1.0,92.0,0.0,0.0,0,0,0.6503949,,,,-1.1463079018176228,-7.961680698922361,,0.5488704442977905,0.0,30.0,2023-06-27_09h13.59.270
RS,low,2,94,True,1.0,93.0,1.0,1.0,1,0,2.076748,1.1197841,7.653994696680354,6.271817013590503,7.105001433469587,8.297741051726527,2.0989907,0.6201356053352356,0.0,3.0,2023-06-27_09h13.59.270
RS,low,2,95,True,1.0,94.0,1.0,1.0,1,0,1.40945,0.81597495,-9.556346776631976,-0.4458637687386614,-10.038840373115208,-1.163507811181177,0.8647618,0.5002890825271606,0.0,66.0,2023-06-27_09h13.59.270
RS,low,2,96,True,1.0,95.0,1.0,1.0,1,0,1.243053,0.84000397,-11.057421464718802,1.857765703077756,-2.9740996636901,-5.737150663832521,11.091566,0.566596508026123,0.0,6.0,2023-06-27_09h13.59.270
RS,low,2,97,True,1.0,96.0,1.0,1.0,1,0,1.295919,0.85597014,0.5201743968617716,-11.75594136907604,3.605498550994757,-5.650926761513094,6.840353,0.566596508026123,0.0,9.0,2023-06-27_09h13.59.270
RS,low,2,98,True,1.0,97.0,1.0,1.0,1,0,1.2227862,1.279711,5.58815923485789,-1.6794201955822912,11.129645287271533,-3.8743136626932144,5.9603376,0.5548374652862549,0.0,45.0,2023-06-27_09h13.59.270
RS,low,2,99,False,1.0,98.0,1.0,0.0,0,1,0.7947221,1.0000129,5.573297109233267,3.9384632905248425,,,,,1.0,-1.0,2023-06-27_09h13.59.270
RS,low,2,100,True,1.0,99.0,0.0,0.0,0,0,0.48232222,,,,-6.652231081792132,-2.045041559656204,,0.5170249342918396,0.0,69.0,2023-06-27_09h13.59.270
HT,mid,2,1,False,1.0,0.0,1.0,0.0,0,1,1.1274121,0.19974089,-3.596634401158535,-1.0254866680989212,,,,,1.0,-1.0,2023-06-27_14h58.46.359
HT,mid,2,2,True,1.0,1.0,1.0,1.0,1,0,0.5283792,0.45616007,4.874777204876032,6.658232279830678,5.887706451443668,6.699821905190156,1.0137827,1.00920307636261,0.0,50.0,2023-06-27_14h58.46.359
HT,mid,2,3,False,1.0,2.0,1.0,0.0,0,1,1.436655,0.51170707,-1.8429035774531333,-12.751703785925717,,,,,1.0,-1.0,2023-06-27_14h58.46.359
HT,mid,2,4,False,1.0,3.0,0.0,1.0,0,0,0.47574902,,,,,,,,1.0,-1.0,2023-06-27_14h58.46.359
HT,mid,2,5,True,1.0,4.0,0.0,0.0,0,0,2.051085,,,,-5.261957535525822,7.728052302270728,,1.076143741607666,0.0,47.0,2023-06-27_14h58.46.359
HT,mid,2,6,True,1.0,5.0,1.0,1.0,1,0,0.9067061,0.50325894,-1.3227291805913624,-7.698581073554219,-0.7751931130750074,-8.557093782604424,1.0182533,0.9872419238090516,0.0,47.0,2023-06-27_14h58.46.359
HT,mid,2,7,True,1.0,6.0,1.0,1.0,1,0,0.60840106,0.52788997,0.3864152662401731,-5.825953244851842,0.4569214506615612,-5.853874248012033,0.0758334,0.9846230745315552,0.0,11.0,2023-06-27_14h58.46.359
HT,mid,2,8,False,1.0,7.0,0.0,1.0,0,0,0.7802601,,,,,,,,1.0,-1.0,2023-06-27_14h58.46.359
HT,mid,2,9,False,1.0,8.0,0.0,1.0,0,0,1.226259,,,,,,,,1.0,-1.0,2023-06-27_14h58.46.359
HT,mid,2,10,False,1.0,9.0,1.0,0.0,0,1,0.867548,0.47191596,3.656082903657023,-8.010685711671282,,,,,1.0,-1.0,2023-06-27_14h58.46.359
HT,mid,2,11,True,1.0,10.0,1.0,1.0,1,0,0.4057839,0.5755451,-1.0552109193481654,5.45440010423629,0.6803725708360333,6.223552412136447,1.8983797,0.9869959950447084,0.0,0.0,2023-06-27_14h58.46.359
HT,mid,2,12,False,1.0,11.0,0.0,1.0,0,0,0.55430484,,,,,,,,1.0,-1.0,2023-06-27_14h58.46.359
HT,mid,2,13,True,1.0,12.0,1.0,1.0,1,0,1.205318,0.56801796,-11.384388228460487,5.632745611731755,-5.961738702513709,-10.787797181328871,17.292755,1.005864500999451,0.0,16.0,2023-06-27_14h58.46.359
HT,mid,2,14,False,1.0,13.0,1.0,0.0,0,1,0.39410686,,,,,,,,1.0,-1.0,2023-06-27_14h58.46.359
HT,mid,2,15,False,1.0,14.0,0.0,1.0,0,0,0.7008171,,,,,,,,1.0,-1.0,2023-06-27_14h58.46.359
HT,mid,2,16,False,1.0,15.0,0.0,1.0,0,0,2.0458782,,,,,,,,1.0,-1.0,2023-06-27_14h58.46.359
HT,mid,2,17,False,1.0,16.0,1.0,0.0,0,1,1.2998221,0.41582918,5.915125998599575,5.023398461122252,,,,,1.0,-1.0,2023-06-27_14h58.46.359
HT,mid,2,18,False,1.0,17.0,0.0,1.0,0,0,0.4641919,,,,,,,,1.0,-1.0,2023-06-27_14h58.46.359
HT,mid,2,19,False,1.0,18.0,0.0,1.0,0,0,0.31806302,,,,,,,,1.0,-1.0,2023-06-27_14h58.46.359
HT,mid,2,20,True,1.0,19.0,1.0,1.0,1,0,0.5646641,0.46439505,-13.182705429039755,-5.127433340494606,-11.607835290120976,-5.323143735241625,1.586984,0.99186372756958,0.0,28.0,2023-06-27_14h58.46.359
HT,mid,2,21,True,1.0,20.0,1.0,1.0,1,0,0.784529,0.448493,8.233617596040613,-5.320640973614692,9.45687099315039,-5.255434500710518,1.2249901,0.990826427936554,0.0,47.0,2023-06-27_14h58.46.359
HT,mid,2,22,True,1.0,21.0,0.0,0.0,0,0,0.58738494,,,,4.985908377696973,4.491183099771944,,0.9947356581687928,0.0,30.0,2023-06-27_14h58.46.359
HT,mid,2,23,False,1.0,22.0,0.0,1.0,0,0,1.859719,,,,,,,,1.0,-1.0,2023-06-27_14h58.46.359
HT,mid,2,24,True,1.0,23.0,1.0,1.0,1,0,0.6372919,0.38380885,7.653994696680354,5.08284696362074,7.532659761606756,5.759423161538223,0.68737,0.9869959950447084,0.0,0.0,2023-06-27_14h58.46.359
