date_str,distance_setting,is_retina_display,is_lab,is_practice,duration_ms,number_of_objects,number_of_trials,participant,TrialNumber,target_present,ran,order,trial_id,response_yes,yes_no_correct,rt_sec,rt_where_sec,response_where_x,response_where_y,target_pos_x,target_pos_y,click_distance_deg,distance_shapecomp,background_shape_idx,proto_object_idx
2023-06-26_15h10.13.702,high,False,True,True,300,4,10,sr,1,False,1.0,0.0,trial_f8a8326e-14c5-4c66-acdf-fb80cb0df175,0.0,1.0,2.114289,,,,,,,,3.0,-1.0
2023-06-26_15h10.13.702,high,False,True,True,300,4,10,sr,2,True,1.0,1.0,trial_2e7ff803-19e8-43a1-a76f-04570792b932,1.0,1.0,1.076937,0.8898978,-10.10624542474299,-6.717680782329165,-9.190833112923576,-8.377385282023395,1.8954152,1.4989203214645386,0.0,65.0
2023-06-26_15h10.13.702,high,False,True,True,300,4,10,sr,3,False,1.0,2.0,trial_331cd132-0698-4f52-afa3-9e82a5dc0d1e,0.0,1.0,1.085695,,,,,,,,3.0,-1.0
2023-06-26_15h10.13.702,high,False,True,True,300,4,10,sr,4,False,1.0,3.0,trial_287b23fb-712d-47d8-938e-ad2f56b9dd47,0.0,1.0,0.9746771,,,,,,,,3.0,-1.0
2023-06-26_15h10.13.702,high,False,True,True,300,4,10,sr,5,True,1.0,4.0,trial_00ee52a8-a5a1-46d6-92c1-157667852360,0.0,0.0,0.7737119,,,,3.8197426359035105,5.849738741364849,,1.510757565498352,0.0,51.0
2023-06-26_15h10.13.702,high,False,True,True,300,4,10,sr,6,True,1.0,5.0,trial_ea619954-db39-41b5-b219-354c7ef17643,1.0,1.0,0.7675719,0.9787259,5.008536335497629,5.677331988605621,2.849227649040964,5.1785772077074785,2.2161613,1.5018826723098757,0.0,71.0
2023-06-26_15h10.13.702,high,False,True,True,300,4,10,sr,7,True,1.0,6.0,trial_3b33a75b-79c3-4092-8886-1aee02924f0d,0.0,0.0,0.92639804,,,,1.7083422868353246,-7.937486924757461,,1.497310996055603,0.0,20.0
2023-06-26_15h10.13.702,high,False,True,True,300,4,10,sr,8,True,1.0,7.0,trial_1800b6c7-7e02-4831-887c-72c87fd986f0,1.0,1.0,1.1754949,0.8416469,-9.556346776631976,5.662469862981,-9.310649190756427,4.839377958477837,0.85898054,1.505757212638855,0.0,6.0
2023-06-26_15h10.13.702,high,False,True,True,300,4,10,sr,9,False,1.0,8.0,trial_86e12541-0b75-4af3-b4e2-506da2640391,0.0,1.0,0.83862615,,,,,,,,3.0,-1.0
2023-06-26_15h10.13.702,high,False,True,True,300,4,10,sr,10,False,1.0,9.0,trial_a945d83e-c44f-45bd-a003-37bb0bd3bcfa,0.0,1.0,0.553622,,,,,,,,3.0,-1.0
2023-06-26_15h10.13.702,high,False,True,True,300,4,10,sr,11,True,1.0,10.0,trial_edb7d3bc-2aad-460b-8ae1-88e5e6416cb2,1.0,1.0,0.69803,0.786268,-0.7579684068557243,-7.490511314809512,-1.0539837884248482,-7.850683758699897,0.46620736,1.4957720041275024,0.0,29.0
2023-06-26_15h10.13.702,high,False,True,True,300,4,10,sr,12,False,1.0,11.0,trial_8fc693aa-4627-4388-b12b-331db329e842,0.0,1.0,0.57684493,,,,,,,,3.0,-1.0
2023-06-26_15h10.13.702,high,False,True,True,300,4,10,sr,13,True,1.0,12.0,trial_cb06b42a-8687-49b2-b628-724abbf30927,1.0,1.0,1.2214241,0.64818,-2.318491597441039,-8.010685711671282,-9.780189171380488,6.802890325559254,16.58671,1.4734646081924438,0.0,52.0
2023-06-26_15h10.13.702,high,False,True,True,300,4,10,sr,14,True,1.0,13.0,trial_5e2c6b10-c096-451e-b59c-ee8a73ae67e0,0.0,0.0,1.102808,,,,1.065050150431586,4.961884632354974,,1.4964931011199951,0.0,47.0
2023-06-26_15h10.13.702,high,False,True,True,300,4,10,sr,15,False,1.0,14.0,trial_5194cfa8-26c6-46db-91e1-822bbaa097e4,0.0,1.0,0.8508389,,,,,,,,3.0,-1.0
2023-06-26_15h10.13.702,high,False,True,True,300,4,10,sr,16,False,1.0,15.0,trial_665a3c6e-5671-43a0-9822-153815de148c,0.0,1.0,0.60010505,,,,,,,,3.0,-1.0
2023-06-26_15h10.13.702,high,False,True,True,300,4,10,sr,17,True,1.0,16.0,trial_0ecfa677-b55f-4a4a-a08f-3a064a497f65,1.0,1.0,0.7592528,1.0338659,4.205981551768039,9.913037791622903,3.828327492646468,7.003262698081005,2.9341803,1.499178767204285,0.0,35.0
2023-06-26_15h10.13.702,high,False,True,True,300,4,10,sr,18,True,1.0,17.0,trial_ede81383-7947-41d6-890f-0d613c8b9c6c,1.0,1.0,1.1259322,1.025908,9.5712089022566,-4.830190828002165,11.287070936326382,-6.438706204947548,2.3519151,1.4957720041275024,0.0,29.0
2023-06-26_15h10.13.702,high,False,True,True,300,4,10,sr,19,False,1.0,18.0,trial_b4ced15a-faf1-45f4-89e1-ab6474b2d1c8,0.0,1.0,0.49854398,,,,,,,,3.0,-1.0
2023-06-26_15h10.13.702,high,False,True,True,300,4,10,sr,20,False,1.0,19.0,trial_753b2ccd-daa1-4cca-9cdf-9a172685148b,0.0,1.0,0.5684521,,,,,,,,3.0,-1.0
2023-06-26_15h38.26.579,low,False,True,False,300,3,50,sr,1,False,1.0,0.0,trial_30404ed6-5970-484f-a3e1-b0c2c9c69344,0.0,1.0,1.0344632,,,,,,,,2.0,-1.0
2023-06-26_15h38.26.579,low,False,True,False,300,3,50,sr,2,True,1.0,1.0,trial_213c510a-dbef-44f8-8d99-8fe707b323ce,1.0,1.0,0.6217389,0.30341506,-2.6454583611827247,-6.24209276234126,-5.434043092693855,-1.8897083587554135,5.1690865,0.5149855017662048,0.0,39.0
2023-06-26_15h38.26.579,low,False,True,False,300,3,50,sr,3,True,1.0,2.0,trial_3e5e09b6-62c5-4fef-a6f9-f63c92519eae,0.0,0.0,0.41841793,,,,9.23509561481458,6.121560825517715,,0.5549496412277222,0.0,65.0
2023-06-26_15h38.26.579,low,False,True,False,300,3,50,sr,4,True,1.0,3.0,trial_fc4fa390-8462-4256-a8a2-6be49e71553a,1.0,1.0,0.5388291,0.47175002,6.256954887965882,-7.921512957923549,-10.409420176212793,-6.866166833901087,16.699755,0.480796605348587,0.0,31.0
2023-06-26_15h38.26.579,low,False,True,False,300,3,50,sr,5,False,1.0,4.0,trial_dc6b2f33-51b6-4038-9275-bb12d3ad7f5d,0.0,1.0,0.27653408,,,,,,,,2.0,-1.0
2023-06-26_15h38.26.579,low,False,True,False,300,3,50,sr,6,True,1.0,5.0,trial_3057477b-be7f-4f93-bff9-3efe17a12bb6,0.0,0.0,0.510345,,,,-1.1988285465337964,6.456425843064251,,0.8231127262115479,0.0,46.0
2023-06-26_15h38.26.579,low,False,True,False,300,3,50,sr,7,True,1.0,6.0,trial_cf7bd718-2392-4abe-abf6-29b4908fc166,1.0,1.0,0.51614,0.38342905,2.61573410993348,-6.152920008593528,6.639001283871847,4.2123276297369445,11.11868,0.5041901469230652,0.0,47.0
2023-06-26_15h38.26.579,low,False,True,False,300,3,50,sr,8,False,1.0,7.0,trial_13003372-08ac-4223-acbc-9a71d4d7ccce,0.0,1.0,0.41265512,,,,,,,,2.0,-1.0
2023-06-26_15h38.26.579,low,False,True,False,300,3,50,sr,9,True,1.0,8.0,trial_ad75e896-6ff0-4c25-af22-58c7282c5c36,0.0,0.0,0.87556386,,,,-1.6629412408328603,6.746795784559729,,0.5548374652862549,0.0,45.0
2023-06-26_15h38.26.579,low,False,True,False,300,3,50,sr,10,True,1.0,9.0,trial_ef8c3f5a-e27b-4449-9e52-8db9dcc6fd3d,0.0,0.0,0.809736,,,,-5.615336131252118,-5.914410193067989,,0.6629336476325989,0.0,41.0
2023-06-26_15h38.26.579,low,False,True,False,300,3,50,sr,11,True,1.0,10.0,trial_1a68aa48-0f2f-4318-a1c5-72870e80c1d6,0.0,0.0,0.652812,,,,0.9443382649371356,9.157451374985472,,0.7091094851493835,0.0,35.0
2023-06-26_15h38.26.579,low,False,True,False,300,3,50,sr,12,True,1.0,11.0,trial_5d1b44ac-c0ff-46dc-b4f1-39c30ebb3fcd,1.0,1.0,0.93664193,0.31988883,5.825953244851842,2.883252371176677,1.375160325183543,5.807999028016167,5.3257585,0.4986608028411865,0.0,59.0
2023-06-26_15h38.26.579,low,False,True,False,300,3,50,sr,13,True,1.0,12.0,trial_a108c16e-c242-497c-b1c3-bf9c3bc36e15,0.0,0.0,0.37614107,,,,-11.161492115980908,-0.0907507669296097,,0.566596508026123,0.0,9.0
2023-06-26_15h38.26.579,low,False,True,False,300,3,50,sr,14,False,1.0,13.0,trial_0cae8309-6653-4351-a7e4-77a6afbbbd7f,1.0,0.0,0.88963294,0.3444109,-0.2229318843693307,-8.040409962920528,,,,,2.0,-1.0
2023-06-26_15h38.26.579,low,False,True,False,300,3,50,sr,15,False,1.0,14.0,trial_6fa6ab39-e329-429e-9e55-159119260774,0.0,1.0,0.38162184,,,,,,,,2.0,-1.0
2023-06-26_15h38.26.579,low,False,True,False,300,3,50,sr,16,True,1.0,15.0,trial_c2a806f8-4b9e-4866-90e9-51e15c01e3a8,1.0,1.0,0.6635759,0.43160987,6.509611023584457,7.11895817419396,6.195443046326862,7.737242865927119,0.6935254,0.7545811533927917,0.0,42.0
2023-06-26_15h38.26.579,low,False,True,False,300,3,50,sr,17,True,1.0,16.0,trial_4a1d0ab9-88ad-4e4f-93e9-22dffa3b2482,1.0,1.0,0.73498297,0.3838818,-1.248418552468252,10.89393808284796,-4.699221721803172,7.81417387468685,4.6252556,0.6201356053352356,0.0,3.0
2023-06-26_15h38.26.579,low,False,True,False,300,3,50,sr,18,False,1.0,17.0,trial_6377b8a2-ec17-408f-a61b-9e4ca279d635,0.0,1.0,0.44142008,,,,,,,,2.0,-1.0
2023-06-26_15h38.26.579,low,False,True,False,300,3,50,sr,19,False,1.0,18.0,trial_a8b154ff-182d-4777-af05-f6b207b0b810,0.0,1.0,0.500262,,,,,,,,2.0,-1.0
2023-06-26_15h38.26.579,low,False,True,False,300,3,50,sr,20,True,1.0,19.0,trial_9d3a40ad-ea47-4675-bb1d-a86eb641d22b,1.0,1.0,0.544168,0.35171485,-9.199655761641049,4.488361938635857,-9.831545787185732,5.7792001948246705,1.4372016,0.5578656792640686,0.0,64.0
2023-06-26_15h38.26.579,low,False,True,False,300,3,50,sr,21,True,1.0,20.0,trial_4d4689eb-f13c-4bf0-a788-76aed65e4595,0.0,0.0,0.576066,,,,-1.332324508301605,7.083319106377067,,0.6201356053352356,0.0,3.0
2023-06-26_15h38.26.579,low,False,True,False,300,3,50,sr,22,True,1.0,21.0,trial_f5a2e251-af24-468b-8041-e3cfeccbc6e7,0.0,0.0,0.4728539,,,,9.714261198702165,-4.81045498210446,,0.5149855017662048,0.0,57.0
2023-06-26_15h38.26.579,low,False,True,False,300,3,50,sr,23,False,1.0,22.0,trial_26879a9c-b08c-40d9-8a84-32556075e521,0.0,1.0,0.58580303,,,,,,,,2.0,-1.0
2023-06-26_15h38.26.579,low,False,True,False,300,3,50,sr,24,False,1.0,23.0,trial_a0c94aff-2e67-4253-a321-6a06764a44e3,0.0,1.0,0.4431491,,,,,,,,2.0,-1.0
2023-06-26_15h38.26.579,low,False,True,False,300,3,50,sr,25,True,1.0,24.0,trial_bb5daab5-1ec4-44d4-b3e0-da9e8c0a32af,1.0,1.0,0.7738528,0.4163859,-6.093471506095039,-6.301541264839747,-5.258296183016706,-4.53703828104289,1.9521754,0.5090845227241516,0.0,51.0
2023-06-26_15h38.26.579,low,False,True,False,300,3,50,sr,26,False,1.0,25.0,trial_ca4784f9-02b4-4d71-a4e8-8565c8832612,0.0,1.0,0.435673,,,,,,,,2.0,-1.0
2023-06-26_15h38.26.579,low,False,True,False,300,3,50,sr,27,True,1.0,26.0,trial_61856f83-fcfc-450b-909a-f09e1f1ba138,1.0,1.0,0.63762903,0.6560879,10.046796922244503,6.034023003596551,-10.697048235461995,-3.053047713965474,22.646898,0.5149855017662048,0.0,39.0
2023-06-26_15h38.26.579,low,False,True,False,300,3,50,sr,28,False,1.0,27.0,trial_586c1c4b-3231-4577-8cf3-8efec518177f,0.0,1.0,0.30621386,,,,,,,,2.0,-1.0
2023-06-26_15h38.26.579,low,False,True,False,300,3,50,sr,29,True,1.0,28.0,trial_e8168a17-4b76-47ca-bfe7-7a38f3ab3899,0.0,0.0,0.5537,,,,-5.152418254043338,-10.721937683321649,,0.6480472087860107,0.0,58.0
2023-06-26_15h38.26.579,low,False,True,False,300,3,50,sr,30,False,1.0,29.0,trial_6eac3114-152a-4cf0-80f3-28ac277a3883,0.0,1.0,0.5014539,,,,,,,,2.0,-1.0
2023-06-26_15h38.26.579,low,False,True,False,300,3,50,sr,31,True,1.0,30.0,trial_bfd321ac-e41e-453f-b5f8-130a5d118594,1.0,1.0,0.86649895,0.3679359,7.431062812311023,-7.059509671695472,6.766305138656945,-8.943882754904688,1.9981904,0.5488704442977905,0.0,30.0
2023-06-26_15h38.26.579,low,False,True,False,300,3,50,sr,32,False,1.0,31.0,trial_408031df-3eb0-43e2-9438-d9ab5f5744bf,0.0,1.0,0.4393139,,,,,,,,2.0,-1.0
2023-06-26_15h38.26.579,low,False,True,False,300,3,50,sr,33,True,1.0,32.0,trial_939d7627-037e-43f4-9aeb-e151df52c8dd,1.0,1.0,0.62641,0.5595758,0.7431062812311022,9.749554409752063,1.553647538783146,10.732264842829062,1.2738513,0.6652977466583252,0.0,50.0
2023-06-26_15h38.26.579,low,False,True,False,300,3,50,sr,34,False,1.0,33.0,trial_15384be4-65e4-478e-9c6f-95d3e0db13dd,0.0,1.0,0.6553621,,,,,,,,2.0,-1.0
2023-06-26_15h38.26.579,low,False,True,False,300,3,50,sr,35,False,1.0,34.0,trial_40706620-ec4a-4d63-8a92-4a19e6a07e18,0.0,1.0,0.3393259,,,,,,,,2.0,-1.0
2023-06-26_15h38.26.579,low,False,True,False,300,3,50,sr,36,False,1.0,35.0,trial_d4e66e08-105d-4de5-908b-a4914d0091a3,0.0,1.0,0.30255318,,,,,,,,2.0,-1.0
2023-06-26_15h38.26.579,low,False,True,False,300,3,50,sr,37,False,1.0,36.0,trial_d3244725-6748-492a-82ef-79297496ce16,0.0,1.0,0.23628712,,,,,,,,2.0,-1.0
2023-06-26_15h38.26.579,low,False,True,False,300,3,50,sr,38,False,1.0,37.0,trial_eb0f5880-bd03-4d43-abc6-4fa77654fda6,0.0,1.0,0.26369905,,,,,,,,2.0,-1.0
2023-06-26_15h38.26.579,low,False,True,False,300,3,50,sr,39,False,1.0,38.0,trial_f265850b-5c14-43bf-87c6-03c04f525612,0.0,1.0,0.23136497,,,,,,,,2.0,-1.0
2023-06-26_15h38.26.579,low,False,True,False,300,3,50,sr,40,True,1.0,39.0,trial_393e5d26-b0d5-4a29-943e-4a9c4157c0fc,1.0,1.0,0.79516816,0.383492,-7.208130927941692,-3.2548055117922283,8.980591745105444,-7.318209466357572,16.690895,0.5986795425415039,0.0,63.0
2023-06-26_15h38.26.579,low,False,True,False,300,3,50,sr,41,False,1.0,40.0,trial_6df0baf4-5cef-4155-92e7-5d6947490d16,0.0,1.0,0.31097794,,,,,,,,2.0,-1.0
2023-06-26_15h38.26.579,low,False,True,False,300,3,50,sr,42,True,1.0,41.0,trial_4e458c12-169d-4fed-a256-0ec9c1054435,1.0,1.0,0.48621702,0.423815,-9.392863394761132,1.9766627080747323,-11.314720931719632,2.6543786259655424,2.0378506,0.4744373261928558,0.0,41.0
2023-06-26_15h38.26.579,low,False,True,False,300,3,50,sr,43,False,1.0,42.0,trial_ece7737b-0b10-4b9e-9499-075637e05da3,1.0,0.0,0.865715,0.41574907,-8.35251460103759,1.3227291805913624,,,,,2.0,-1.0
2023-06-26_15h38.26.579,low,False,True,False,300,3,50,sr,44,True,1.0,43.0,trial_38fa798d-5a58-4870-a439-405a949c2dda,1.0,1.0,0.716418,0.351902,6.0637472548457945,-2.7643553661797005,5.913687629908495,-4.3981358598304485,1.6406574,0.5090845227241516,0.0,54.0
2023-06-26_15h38.26.579,low,False,True,False,300,3,50,sr,45,False,1.0,44.0,trial_79fc4de3-2fb2-4aa8-b65e-3e5b19762112,1.0,0.0,1.031888,0.32768297,5.424675852987047,-4.934225707374519,,,,,2.0,-1.0
2023-06-26_15h38.26.579,low,False,True,False,300,3,50,sr,46,False,1.0,45.0,trial_ccff3e74-91e2-4ad8-9bd3-3470c96ea4ab,0.0,1.0,0.25435996,,,,,,,,2.0,-1.0
2023-06-26_15h38.26.579,low,False,True,False,300,3,50,sr,47,False,1.0,46.0,trial_d2eacd32-ccc9-454b-bad3-a0c0f1f5efbe,0.0,1.0,0.2768991,,,,,,,,2.0,-1.0
2023-06-26_15h38.26.579,low,False,True,False,300,3,50,sr,48,False,1.0,47.0,trial_e005b7af-404e-48eb-904b-56353df8d5e4,1.0,0.0,0.6149461,0.59928393,-4.741018074254433,-8.78351624415163,,,,,2.0,-1.0
2023-06-26_15h38.26.579,low,False,True,False,300,3,50,sr,49,True,1.0,48.0,trial_458cd307-9c85-48af-a6fc-fb6ef915b532,0.0,0.0,0.471318,,,,-4.381094427158183,2.9513629288225007,,0.5002890825271606,0.0,66.0
2023-06-26_15h38.26.579,low,False,True,False,300,3,50,sr,50,True,1.0,49.0,trial_691bc096-6c93-45aa-bb4e-82d836275690,0.0,0.0,0.31169915,,,,10.730945852008634,-2.916003883270022,,0.5170249342918396,0.0,69.0
2023-06-26_15h38.26.579,low,False,True,False,300,3,50,sr,51,False,1.0,50.0,trial_a260c180-652a-497b-8751-58f349b31047,0.0,1.0,0.59177923,,,,,,,,2.0,-1.0
2023-06-26_15h38.26.579,low,False,True,False,300,3,50,sr,52,False,1.0,51.0,trial_03a2d572-9778-4b13-ae7a-1c1814ad06b5,0.0,1.0,0.42618918,,,,,,,,2.0,-1.0
2023-06-26_15h38.26.579,low,False,True,False,300,3,50,sr,53,False,1.0,52.0,trial_942b8429-4929-41a4-a34a-a874f5984d46,0.0,1.0,0.35479593,,,,,,,,2.0,-1.0
2023-06-26_15h38.26.579,low,False,True,False,300,3,50,sr,54,True,1.0,53.0,trial_8c43538b-205c-4354-a082-445e9b0d2df9,1.0,1.0,0.513417,1.1198561,5.112571214869983,1.605109567459181,8.220183227891553,3.796723800581701,3.8026867,0.5709244012832642,0.0,39.0
2023-06-26_15h38.26.579,low,False,True,False,300,3,50,sr,55,True,1.0,54.0,trial_7f44a45e-3d60-4020-b4a5-42e5ff7de63b,1.0,1.0,1.0264702,0.38343596,2.5860098586842364,6.004298752347307,5.572172972848286,2.7777185164380547,4.396361,0.7787971496582031,0.0,37.0
2023-06-26_15h38.26.579,low,False,True,False,300,3,50,sr,56,False,1.0,55.0,trial_0266935d-51df-4bd7-8e0b-4223488850cf,0.0,1.0,0.38548613,,,,,,,,2.0,-1.0
2023-06-26_15h38.26.579,low,False,True,False,300,3,50,sr,57,False,1.0,56.0,trial_a20a0986-7c61-4211-a172-55e44d04f9d7,0.0,1.0,0.3082838,,,,,,,,2.0,-1.0
2023-06-26_15h38.26.579,low,False,True,False,300,3,50,sr,58,False,1.0,57.0,trial_b427b066-08a8-4b58-aa89-b7d970e0baf3,0.0,1.0,0.33889103,,,,,,,,2.0,-1.0
2023-06-26_15h38.26.579,low,False,True,False,300,3,50,sr,59,True,1.0,58.0,trial_59ee8946-8d4a-461a-91a8-4480b451c118,1.0,1.0,0.99869704,0.28740406,0.2526561356185747,-6.331265516088991,3.46204731203452,-9.90165931505988,4.800823,0.5323181748390198,0.0,31.0
2023-06-26_15h38.26.579,low,False,True,False,300,3,50,sr,60,True,1.0,59.0,trial_df18e938-0730-4721-838f-e55202605fbc,1.0,1.0,0.818645,0.36021996,-3.879014788026354,6.762267159203032,-8.408043799881256,-7.105283573064664,14.588388,0.7787971496582031,0.0,37.0
2023-06-26_15h38.26.579,low,False,True,False,300,3,50,sr,61,False,1.0,60.0,trial_7ce627fa-81ca-46eb-bcfc-e2f78fa14543,0.0,1.0,0.462754,,,,,,,,2.0,-1.0
2023-06-26_15h38.26.579,low,False,True,False,300,3,50,sr,62,True,1.0,61.0,trial_de5aced6-e5e5-4b9e-aec3-a6d6fbe73c35,1.0,1.0,0.70888114,0.288229,-7.505373440434134,-1.560523190585315,-5.402995582246275,-2.1270736106952453,2.1773772,0.7787971496582031,0.0,37.0
2023-06-26_15h38.26.579,low,False,True,False,300,3,50,sr,63,False,1.0,62.0,trial_529e058f-6447-40c2-8086-c435c049e585,0.0,1.0,0.60443807,,,,,,,,2.0,-1.0
2023-06-26_15h38.26.579,low,False,True,False,300,3,50,sr,64,True,1.0,63.0,trial_3c6a3088-3bec-4681-b72b-9b60ad877869,1.0,1.0,0.64150596,0.42406893,-5.989436626722685,-7.431062812311023,-5.7676130848595495,-7.987391605624355,0.5989219,0.7141953706741333,0.0,64.0
2023-06-26_15h38.26.579,low,False,True,False,300,3,50,sr,65,True,1.0,64.0,trial_67b26dc5-5244-4119-8bc8-f658eaacfe78,1.0,1.0,0.6019318,0.35154295,-6.123195757344283,-6.331265516088991,-7.293753488353811,-6.903186421408188,1.3028042,0.5149855017662048,0.0,57.0
2023-06-26_15h38.26.579,low,False,True,False,300,3,50,sr,66,True,1.0,65.0,trial_bf7d234d-f371-43a1-9c08-b8dfc7e9be55,1.0,1.0,0.7952719,0.40736198,-9.957624168496771,2.199594592444063,-6.82366973252083,-4.550408773814634,7.442057,0.5495201945304871,0.0,22.0
2023-06-26_15h38.26.579,low,False,True,False,300,3,50,sr,67,True,1.0,66.0,trial_42d74479-b43a-49bf-aa01-4920ed6e458f,0.0,0.0,0.54676104,,,,-8.510243050584213,-7.16649978848215,,0.5294628739356995,0.0,4.0
2023-06-26_15h38.26.579,low,False,True,False,300,3,50,sr,68,True,1.0,67.0,trial_22de9a60-1c8b-40bd-a6e0-665d02dfe1e6,1.0,1.0,0.525635,0.255723,-9.719830158502818,2.972425124924409,-6.689676847720921,4.243602536013509,3.2859886,0.7545811533927917,0.0,13.0
2023-06-26_15h38.26.579,low,False,True,False,300,3,50,sr,69,False,1.0,68.0,trial_feb77e26-cb5a-4d18-a874-c60eab053c66,0.0,1.0,0.38842797,,,,,,,,2.0,-1.0
2023-06-26_15h38.26.579,low,False,True,False,300,3,50,sr,70,True,1.0,69.0,trial_e95f88de-31e0-4ca1-a693-fed0cfe44a9f,1.0,1.0,0.582778,0.4078691,-5.186881842993094,-7.252717304815558,-6.574859060029276,-6.310572087137495,1.6775334,0.480796605348587,0.0,31.0
2023-06-26_15h38.26.579,low,False,True,False,300,3,50,sr,71,True,1.0,70.0,trial_b38ebb5d-3bad-4064-ab37-e8b58807e841,1.0,1.0,0.5668149,0.5274141,-4.636983194882078,7.535097691683378,-5.131517386388614,9.065936493651856,1.608736,0.5187864303588867,0.0,39.0
2023-06-26_15h38.26.579,low,False,True,False,300,3,50,sr,72,False,1.0,71.0,trial_40e5d37a-6591-4f88-8446-4816c32b130c,0.0,1.0,0.33281302,,,,,,,,2.0,-1.0
2023-06-26_15h38.26.579,low,False,True,False,300,3,50,sr,73,False,1.0,72.0,trial_75badd58-8835-44d9-9f77-0f5f9e341ff5,0.0,1.0,0.32697296,,,,,,,,2.0,-1.0
2023-06-26_15h38.26.579,low,False,True,False,300,3,50,sr,74,False,1.0,73.0,trial_e0008148-1935-4ba4-a64a-2241c7f7ba67,0.0,1.0,0.32161617,,,,,,,,2.0,-1.0
2023-06-26_15h38.26.579,low,False,True,False,300,3,50,sr,75,False,1.0,74.0,trial_c5365eb2-e93c-45e2-86aa-dc92c9672c68,0.0,1.0,0.25060797,,,,,,,,2.0,-1.0
2023-06-26_15h38.26.579,low,False,True,False,300,3,50,sr,76,True,1.0,75.0,trial_84f8f547-bb55-4fa1-a4f0-222925f22786,0.0,0.0,0.30523586,,,,7.340431189246594,-0.2497724184257011,,0.5672717690467834,0.0,21.0
2023-06-26_15h38.26.579,low,False,True,False,300,3,50,sr,77,False,1.0,76.0,trial_79ffac62-3c2e-4efb-b56a-06b363c5b74a,0.0,1.0,0.28070807,,,,,,,,2.0,-1.0
2023-06-26_15h38.26.579,low,False,True,False,300,3,50,sr,78,False,1.0,77.0,trial_9450f2a6-9f91-40f5-a2fb-90c229499e26,0.0,1.0,0.32368898,,,,,,,,2.0,-1.0
2023-06-26_15h38.26.579,low,False,True,False,300,3,50,sr,79,False,1.0,78.0,trial_02d751f3-dedf-4173-8048-febb55d80496,0.0,1.0,0.32453895,,,,,,,,2.0,-1.0
2023-06-26_15h38.26.579,low,False,True,False,300,3,50,sr,80,False,1.0,79.0,trial_a7fcbc62-0ba1-4164-99df-9c98e239bcba,0.0,1.0,0.22950983,,,,,,,,2.0,-1.0
2023-06-26_15h38.26.579,low,False,True,False,300,3,50,sr,81,True,1.0,80.0,trial_fc633468-59e5-467a-b44a-2f4ea6e96320,1.0,1.0,0.4494028,0.3677919,-6.494748897959834,-3.596634401158535,-4.521266404335909,-2.579550591556531,2.220156,0.6881098747253418,0.0,54.0
2023-06-26_15h38.26.579,low,False,True,False,300,3,50,sr,82,False,1.0,81.0,trial_73c4784b-555c-492f-9d9c-8dbf3e8e20f4,0.0,1.0,0.28636003,,,,,,,,2.0,-1.0
2023-06-26_15h38.26.579,low,False,True,False,300,3,50,sr,83,True,1.0,82.0,trial_e0794aa8-137d-4a1e-b0bc-140b798a69ac,0.0,0.0,0.2343862,,,,-2.8296534413936185,11.437097889795352,,0.566596508026123,0.0,6.0
2023-06-26_15h38.26.579,low,False,True,False,300,3,50,sr,84,False,1.0,83.0,trial_02cbde76-c8f0-49e1-a9cf-f0330540e091,0.0,1.0,0.5900011,,,,,,,,2.0,-1.0
2023-06-26_15h38.26.579,low,False,True,False,300,3,50,sr,85,True,1.0,84.0,trial_d1aa6421-b7f0-4077-8e9d-ec5f90f9283e,1.0,1.0,0.6153021,0.4158399,1.7834550749546456,-9.927899917247526,-1.6943382104206102,-11.826798545385948,3.9624314,0.8238337635993958,0.0,62.0
2023-06-26_15h38.26.579,low,False,True,False,300,3,50,sr,86,False,1.0,85.0,trial_6fd90b33-e237-487b-9e6f-cc26eb346e2d,0.0,1.0,0.61170506,,,,,,,,2.0,-1.0
2023-06-26_15h38.26.579,low,False,True,False,300,3,50,sr,87,True,1.0,86.0,trial_a4fc2187-e1a7-4905-b846-90b47f9d7b4a,0.0,0.0,0.9296489,,,,-0.600417541120406,-7.517919797846472,,0.7787971496582031,0.0,37.0
2023-06-26_15h38.26.579,low,False,True,False,300,3,50,sr,88,False,1.0,87.0,trial_97f14d63-5c9f-4efc-bd31-e591a7274b6e,0.0,1.0,0.3995378,,,,,,,,2.0,-1.0
2023-06-26_15h38.26.579,low,False,True,False,300,3,50,sr,89,True,1.0,88.0,trial_408765bc-c6bf-4121-b60d-d20a788372ff,0.0,0.0,1.7323802,,,,4.162955922787457,9.66409685010939,,0.7434694766998291,0.0,68.0
2023-06-26_15h38.26.579,low,False,True,False,300,3,50,sr,90,False,1.0,89.0,trial_74b424ae-66ca-44e3-be61-1149e57c09c5,1.0,0.0,0.4999888,0.479877,5.781366867977976,8.20389334479137,,,,,2.0,-1.0
2023-06-26_15h38.26.579,low,False,True,False,300,3,50,sr,91,True,1.0,90.0,trial_2337710d-d341-40b8-8b4a-11720231b14c,1.0,1.0,0.44945097,0.391932,1.1592457987205196,10.358901560361566,1.4572951869398103,10.847372352567284,0.5722212,0.4744373261928558,0.0,3.0
2023-06-26_15h38.26.579,low,False,True,False,300,3,50,sr,92,False,1.0,91.0,trial_7076f7a9-7693-411b-a940-de196ed4e9ce,0.0,1.0,1.586401,,,,,,,,2.0,-1.0
2023-06-26_15h38.26.579,low,False,True,False,300,3,50,sr,93,True,1.0,92.0,trial_07807b12-0607-4604-aa0b-3137aaa1091d,1.0,1.0,0.96388507,0.32778502,12.395012770934786,-3.0615978786721416,-5.552444049102046,3.995168337580669,19.284946,0.6395705342292786,0.0,31.0
2023-06-26_15h38.26.579,low,False,True,False,300,3,50,sr,94,True,1.0,93.0,trial_8e114f74-7737-4a11-9108-927a920a18df,1.0,1.0,0.45681286,0.37594485,-0.8471411606034567,5.112571214869983,-2.2408132672439067,6.268093045910416,1.8104012,0.4744373261928558,0.0,41.0
2023-06-26_15h38.26.579,low,False,True,False,300,3,50,sr,95,False,1.0,94.0,trial_bde9fc7f-f7f6-4073-bfde-6267a5b11972,1.0,0.0,0.7121439,0.3275051,-6.747405033578409,8.010685711671282,,,,,2.0,-1.0
2023-06-26_15h38.26.579,low,False,True,False,300,3,50,sr,96,True,1.0,95.0,trial_089cd706-9aa0-4950-9f1e-0f6dab26b617,1.0,1.0,0.52608204,0.327945,-2.199594592444063,-4.324878556765015,-4.184306035345179,-3.99922247051712,2.0112512,0.7141953706741333,0.0,64.0
2023-06-26_15h38.26.579,low,False,True,False,300,3,50,sr,97,True,1.0,96.0,trial_04316d77-a32e-409b-817e-4a48bbb7d00a,1.0,1.0,0.74477005,0.34381104,6.955474792323118,0.6836577787326141,7.226300377204395,0.0321349067123543,0.7055697,0.6629336476325989,0.0,41.0
2023-06-26_15h38.26.579,low,False,True,False,300,3,50,sr,98,True,1.0,97.0,trial_961a0740-44ae-40ed-8d40-eebd8aa53206,1.0,1.0,0.70284295,0.34381485,-6.167782134218149,-2.5265613561857476,-7.808196065048039,-2.8691076663892043,1.6757971,0.629048764705658,0.0,26.0
2023-06-26_15h38.26.579,low,False,True,False,300,3,50,sr,99,True,1.0,98.0,trial_7e327154-3662-492f-b35d-5ea2528505d5,1.0,1.0,0.759614,0.31972504,10.775041077850982,-2.437388602438016,10.68887257865421,-3.1766815304592946,0.7442977,0.8238337635993958,0.0,62.0
2023-06-26_15h38.26.579,low,False,True,False,300,3,50,sr,100,False,1.0,99.0,trial_4ec91903-04d7-47d5-a2fb-af895dcdde55,1.0,0.0,0.6671901,0.31996298,7.267579430440181,3.552048024284669,,,,,2.0,-1.0
2023-06-27_11h44.41.678,mid,False,True,False,300,3,50,JT,1,False,1.0,0.0,trial_d3b92a06-394e-4629-9865-6bd22a3439b4,1.0,0.0,1.687124,0.52820206,6.524473149209078,-10.849351705974094,,,,,2.0,-1.0
2023-06-27_11h44.41.678,mid,False,True,False,300,3,50,JT,2,True,1.0,1.0,trial_99459779-9d31-4d7a-ae3c-2ef44bf27307,1.0,1.0,0.5669291,0.83188605,3.1656327580444956,-9.318552766638025,3.367092236763369,-9.39917923116598,0.21699435,1.0057801008224487,0.0,32.0
2023-06-27_11h44.41.678,mid,False,True,False,300,3,50,JT,3,True,1.0,2.0,trial_a88487f1-2360-4000-803e-4cab2c31dcbf,0.0,0.0,0.468215,,,,-1.245750204162275,-12.248462711485352,,0.9727528691291808,0.0,0.0
2023-06-27_11h44.41.678,mid,False,True,False,300,3,50,JT,4,False,1.0,3.0,trial_994e94ac-d666-4fb3-8867-f769185c28b1,1.0,0.0,0.38803697,0.38325596,8.114720591043637,2.987287250549031,,,,,2.0,-1.0
2023-06-27_11h44.41.678,mid,False,True,False,300,3,50,JT,5,False,1.0,4.0,trial_fe11cdc2-e63a-4fbd-855d-f6143c49fdf7,0.0,1.0,0.40950704,,,,,,,,2.0,-1.0
2023-06-27_11h44.41.678,mid,False,True,False,300,3,50,JT,6,False,1.0,5.0,trial_dc7d5f50-a66f-4a68-bce1-b8403d35dd76,0.0,1.0,0.33535695,,,,,,,,2.0,-1.0
2023-06-27_11h44.41.678,mid,False,True,False,300,3,50,JT,7,True,1.0,6.0,trial_091b4322-52a1-4319-b4c7-720aeb7c33f4,1.0,1.0,0.3142979,0.37586188,-3.552048024284669,-6.5690595260829445,-3.034914534523191,-6.833410915087132,0.58078283,1.076143741607666,0.0,47.0
2023-06-27_11h44.41.678,mid,False,True,False,300,3,50,JT,8,True,1.0,7.0,trial_2ec1c555-0c7c-4235-a77b-8ac8402a0eea,1.0,1.0,0.31544805,0.43987298,3.760117783029378,-6.554197400458322,4.2192662826662595,-6.426847343173032,0.4764823,1.0129791498184204,0.0,68.0
2023-06-27_11h44.41.678,mid,False,True,False,300,3,50,JT,9,True,1.0,8.0,trial_ffc0deda-31b6-4230-a5ce-84b14f860fd3,1.0,1.0,0.6392362,0.80825305,-2.5860098586842364,-6.881164164200008,-1.8205794857894024,-6.960210873211459,0.76950115,0.929678738117218,0.0,28.0
2023-06-27_11h44.41.678,mid,False,True,False,300,3,50,JT,10,True,1.0,9.0,trial_9dcd5b8e-d272-4f07-b872-a7dbe8411220,1.0,1.0,0.86799407,0.6718068,9.095620882268694,6.078609380470416,-4.564622790071383,8.258528732448083,13.833087,1.0413960218429563,0.0,5.0
2023-06-27_11h44.41.678,mid,False,True,False,300,3,50,JT,11,True,1.0,10.0,trial_faa76f93-d1a2-499c-990e-82b0d7a27073,1.0,1.0,0.87109804,0.47989106,-6.004298752347307,5.603021360482511,-6.400714173177653,5.979734617005567,0.546862,0.99307119846344,0.0,7.0
2023-06-27_11h44.41.678,mid,False,True,False,300,3,50,JT,12,True,1.0,11.0,trial_db1147cb-1d4c-4b86-ba2c-89f0280507d9,1.0,1.0,0.45210195,0.6880801,0.8471411606034567,5.989436626722685,0.6682088590970988,5.953181423949155,0.18256837,0.9902483820915222,0.0,64.0
2023-06-27_11h44.41.678,mid,False,True,False,300,3,50,JT,13,True,1.0,12.0,trial_b0450193-186f-4090-ab4f-4a97287a5777,0.0,0.0,0.41820908,,,,-4.700062200064768,-1.9861726956974757,,0.99307119846344,0.0,7.0
2023-06-27_11h44.41.678,mid,False,True,False,300,3,50,JT,14,True,1.0,13.0,trial_22e31fb8-11cb-451c-b2e4-7fbee0b93320,1.0,1.0,0.32234502,0.7275529,7.490511314809512,-9.66038165600433,7.959303777267115,-8.452580286359668,1.2955889,0.9998947381973268,0.0,72.0
2023-06-27_11h44.41.678,mid,False,True,False,300,3,50,JT,15,True,1.0,14.0,trial_5ac8e0aa-c2e7-46d4-b892-ec9089ac28fb,0.0,0.0,0.49046397,,,,6.984617815659386,-3.2660563982284216,,1.0037909746170044,0.0,63.0
2023-06-27_11h44.41.678,mid,False,True,False,300,3,50,JT,16,True,1.0,15.0,trial_63294748-ed75-4f9d-9bd8-284c8adca0c4,0.0,0.0,0.9411721,,,,-0.8296379187978749,12.083431180808333,,1.0057801008224487,0.0,33.0
2023-06-27_11h44.41.678,mid,False,True,False,300,3,50,JT,17,True,1.0,16.0,trial_4497550e-17e6-4450-8bed-2eda02b049dc,1.0,1.0,0.35620904,0.5599282,11.354663977211242,2.9575629992997876,11.385932305002042,-1.8142412139215136,4.771907,1.005864500999451,0.0,74.0
2023-06-27_11h44.41.678,mid,False,True,False,300,3,50,JT,18,True,1.0,17.0,trial_e42887a3-c670-4350-82e1-80df8815bd39,1.0,1.0,0.86426306,0.5916872,0.0743106281231102,0.0594485024984881,-6.7425620684522976,-0.5397142447202674,6.8431535,0.992530107498169,0.0,59.0
2023-06-27_11h44.41.678,mid,False,True,False,300,3,50,JT,19,False,1.0,18.0,trial_d169ec0f-6466-40b5-b8dc-b0f3d6a18140,1.0,0.0,0.63040495,0.49579787,2.779217491804322,6.821715661701519,,,,,2.0,-1.0
2023-06-27_11h44.41.678,mid,False,True,False,300,3,50,JT,20,False,1.0,19.0,trial_b1ef5760-9f4f-476e-a4dd-121de5ba7f7a,1.0,0.0,0.41000605,0.41619492,-11.62218223845444,-1.0552109193481654,,,,,2.0,-1.0
2023-06-27_11h44.41.678,mid,False,True,False,300,3,50,JT,21,True,1.0,20.0,trial_d95c7a7a-eeb0-4775-a7fc-e899aff471e7,1.0,1.0,0.39922714,0.663975,-9.00644812852096,-1.0403487937235432,2.4210971683463116,5.536283054867628,13.184873,1.0057801008224487,0.0,32.0
2023-06-27_11h44.41.678,mid,False,True,False,300,3,50,JT,22,False,1.0,21.0,trial_7ece9d49-7d61-4835-9b7d-290eb8fced12,1.0,0.0,1.249727,0.44786382,-0.4755880199879055,-8.189031219166749,,,,,2.0,-1.0
2023-06-27_11h44.41.678,mid,False,True,False,300,3,50,JT,23,True,1.0,22.0,trial_53fab99a-5999-4781-a629-2efdf0b5bab6,0.0,0.0,0.42841697,,,,8.506007748910722,4.9572498814558,,0.997423529624939,0.0,0.0
2023-06-27_11h44.41.678,mid,False,True,False,300,3,50,JT,24,False,1.0,23.0,trial_45ca2747-fdf4-4d6f-94ea-bb33cd29609c,1.0,0.0,0.39692497,0.488302,-5.0382605867468735,2.8981144968012993,,,,,2.0,-1.0
2023-06-27_11h44.41.678,mid,False,True,False,300,3,50,JT,25,False,1.0,24.0,trial_37ff8105-b02e-4638-b30f-ed4e10c857f2,0.0,1.0,0.37214303,,,,,,,,2.0,-1.0
2023-06-27_11h44.41.678,mid,False,True,False,300,3,50,JT,26,False,1.0,25.0,trial_0890f3ed-f41c-4b9d-b43a-788131e8d4d0,0.0,1.0,0.49266005,,,,,,,,2.0,-1.0
2023-06-27_11h44.41.678,mid,False,True,False,300,3,50,JT,27,False,1.0,26.0,trial_868e2f00-8b6b-4024-a14d-5877fee7c9d5,1.0,0.0,0.39123988,0.6559081,6.539335274833701,5.127433340494606,,,,,2.0,-1.0
2023-06-27_11h44.41.678,mid,False,True,False,300,3,50,JT,28,False,1.0,27.0,trial_4275e986-456b-45bf-99e8-7ab7f65c4066,0.0,1.0,0.3818698,,,,,,,,2.0,-1.0
2023-06-27_11h44.41.678,mid,False,True,False,300,3,50,JT,29,True,1.0,28.0,trial_2113b6fa-8c33-424c-aca5-2da375fa2dab,1.0,1.0,0.36791587,0.58385706,-2.7049068636812126,-7.04464754607085,-3.629790754293224,-7.202806047510932,0.9383093,0.958284556865692,0.0,28.0
2023-06-27_11h44.41.678,mid,False,True,False,300,3,50,JT,30,False,1.0,29.0,trial_4b3e5c94-a572-46fe-9359-7c5a6d1ade05,1.0,0.0,0.4013338,0.42421103,8.515997982908432,8.040409962920528,,,,,2.0,-1.0
2023-06-27_11h44.41.678,mid,False,True,False,300,3,50,JT,31,False,1.0,30.0,trial_3068f53b-fceb-4917-a57b-f7f3a113d3e8,0.0,1.0,0.494138,,,,,,,,2.0,-1.0
2023-06-27_11h44.41.678,mid,False,True,False,300,3,50,JT,32,False,1.0,31.0,trial_ee49a793-6740-4c85-9a6e-5371c8c23ff9,0.0,1.0,0.33007693,,,,,,,,2.0,-1.0
2023-06-27_11h44.41.678,mid,False,True,False,300,3,50,JT,33,False,1.0,32.0,trial_5927d423-d2d6-426a-86d7-39595043591a,0.0,1.0,0.29984403,,,,,,,,2.0,-1.0
2023-06-27_11h44.41.678,mid,False,True,False,300,3,50,JT,34,True,1.0,33.0,trial_d3af4604-c22d-47b1-837c-260618140b86,1.0,1.0,0.65845084,0.56794906,7.698581073554219,1.1146594218466537,7.548720866421899,0.2272540683808773,0.8999702,1.0125123262405396,0.0,74.0
2023-06-27_11h44.41.678,mid,False,True,False,300,3,50,JT,35,True,1.0,34.0,trial_cbcc1417-85b6-4979-9aed-8be9e2c331fb,0.0,0.0,0.83692694,,,,5.40273027307565,-1.5180576364202218,,0.958284556865692,0.0,28.0
2023-06-27_11h44.41.678,mid,False,True,False,300,3,50,JT,36,False,1.0,35.0,trial_c444b865-9c78-4b95-bdd4-1e9eb2948055,1.0,0.0,0.4037888,0.35187197,-6.034023003596551,-3.12104638117063,,,,,2.0,-1.0
2023-06-27_11h44.41.678,mid,False,True,False,300,3,50,JT,37,True,1.0,36.0,trial_e1b77078-2e82-46b4-ac30-a5d03150025d,1.0,1.0,0.98254704,0.36786294,10.596695570355518,0.7728305324803463,-10.374251701309742,-1.9937433187133955,21.152649,0.9998947381973268,0.0,72.0
2023-06-27_11h44.41.678,mid,False,True,False,300,3,50,JT,38,False,1.0,37.0,trial_cd3cac67-51ad-4e20-9e0e-022cafd2147d,1.0,0.0,0.220577,0.38358784,10.403487937235433,-2.987287250549031,,,,,2.0,-1.0
2023-06-27_11h44.41.678,mid,False,True,False,300,3,50,JT,39,True,1.0,38.0,trial_da5efa86-b345-469b-bf2d-bd6eadc54e14,1.0,1.0,0.43955088,0.488276,5.5435728579840235,5.825953244851842,-8.933645993804788,8.163341722903649,14.664694,1.0037909746170044,0.0,63.0
2023-06-27_11h44.41.678,mid,False,True,False,300,3,50,JT,40,True,1.0,39.0,trial_70ae2944-ffe2-4cf7-b6ca-c7239d422323,1.0,1.0,0.33366895,0.6562679,6.2123685110920155,9.496898274133486,6.302986832658806,10.539857531121411,1.0468886,1.076143741607666,0.0,47.0
2023-06-27_11h44.41.678,mid,False,True,False,300,3,50,JT,41,True,1.0,40.0,trial_343797b4-106a-4bb0-b753-118339f57221,1.0,1.0,0.8926561,0.647933,-8.010685711671282,-7.000061169196983,-7.727530353596358,-7.1443429206154505,0.3177958,1.0125123262405396,0.0,74.0
2023-06-27_11h44.41.678,mid,False,True,False,300,3,50,JT,42,True,1.0,41.0,trial_ae8a5a3f-0cb3-4e70-822d-b27ff040a2df,1.0,1.0,0.26381612,0.69576716,-4.324878556765015,3.34397826553996,-4.383307879273381,3.203089182467162,0.15252449,1.011980414390564,0.0,23.0
2023-06-27_11h44.41.678,mid,False,True,False,300,3,50,JT,43,False,1.0,42.0,trial_fa3ad2dd-a63c-4503-83c2-86e44183bf4f,1.0,0.0,0.82623315,0.36783004,-8.917275374773228,-2.0509733361978424,,,,,2.0,-1.0
2023-06-27_11h44.41.678,mid,False,True,False,300,3,50,JT,44,True,1.0,43.0,trial_f36e3729-e0df-4675-a56d-85378d74a79a,1.0,1.0,0.84709,0.79230094,1.30786705496674,10.46293643973392,-7.056403585205353,1.3580728897919825,12.363639,1.0092586278915403,0.0,31.0
2023-06-27_11h44.41.678,mid,False,True,False,300,3,50,JT,45,True,1.0,44.0,trial_b1b2a198-92a7-401e-98a5-7a96cddccf48,1.0,1.0,0.921484,0.855917,10.879075957223336,-3.8492905367771098,11.409616784073137,-3.564595015699829,0.60210055,1.006396770477295,0.0,39.0
2023-06-27_11h44.41.678,mid,False,True,False,300,3,50,JT,46,False,1.0,45.0,trial_5cb43c02-f66b-418c-95b4-2cdad6d0c714,1.0,0.0,0.82388616,0.447901,9.972486294121394,2.972425124924409,,,,,2.0,-1.0
2023-06-27_11h44.41.678,mid,False,True,False,300,3,50,JT,47,False,1.0,46.0,trial_40b0ec0f-e2f8-4813-b53e-75755410996d,1.0,0.0,0.59402585,0.5198319,9.5712089022566,-5.08284696362074,,,,,2.0,-1.0
2023-06-27_11h44.41.678,mid,False,True,False,300,3,50,JT,48,False,1.0,47.0,trial_6d38377f-be19-4915-ba2f-8873d9d629c1,1.0,0.0,0.79564905,0.4319079,6.554197400458322,6.197506385467393,,,,,2.0,-1.0
2023-06-27_11h44.41.678,mid,False,True,False,300,3,50,JT,49,True,1.0,48.0,trial_2d23a079-3691-4ee1-ba35-1467ca46a758,1.0,1.0,0.27074504,0.615314,3.433151019287693,9.51176039975811,6.982536972431839,-7.263824374090808,17.146965,1.0065877437591553,0.0,54.0
2023-06-27_11h44.41.678,mid,False,True,False,300,3,50,JT,50,True,1.0,49.0,trial_c572bb8e-42eb-4318-be2d-a41a86b6b42d,1.0,1.0,0.8292999,0.424273,-12.261253640313187,2.1104218386963307,-11.670949421112033,3.3996241233266855,1.4179215,1.0037909746170044,0.0,7.0
2023-06-27_11h44.41.678,mid,False,True,False,300,3,50,JT,51,False,1.0,50.0,trial_c0bd6aea-61bb-47fd-bb82-bbbf52c580ff,1.0,0.0,0.942225,0.6399071,10.03193479661988,-7.356752184187913,,,,,2.0,-1.0
2023-06-27_11h44.41.678,mid,False,True,False,300,3,50,JT,52,False,1.0,51.0,trial_a848ee55-b2b5-4603-8ac8-fb3857ad0d2d,0.0,1.0,0.31827402,,,,,,,,2.0,-1.0
2023-06-27_11h44.41.678,mid,False,True,False,300,3,50,JT,53,True,1.0,52.0,trial_ed480c5e-ce85-41b7-9bb4-786e80452ee0,1.0,1.0,0.374568,0.61593604,-9.73469228412744,-1.7388686980807797,-0.3294387083529111,7.112696278198024,12.915456,1.020013451576233,0.0,28.0
2023-06-27_11h44.41.678,mid,False,True,False,300,3,50,JT,54,True,1.0,53.0,trial_de19f09b-8315-4499-b4bb-a0dc8d864a01,1.0,1.0,0.63729215,0.44008303,-9.437449771635,0.6836577787326141,-11.050921938573456,0.7554898682710122,1.6150703,0.9980065822601318,0.0,23.0
2023-06-27_11h44.41.678,mid,False,True,False,300,3,50,JT,55,True,1.0,54.0,trial_b0af343a-a4bf-4c04-99e7-8a18b28de66c,1.0,1.0,0.785166,0.47221994,-7.237855179190936,0.029724251249244,6.289428286848262,5.5558041408574095,14.6124935,1.0087734460830688,0.0,17.0
2023-06-27_11h44.41.678,mid,False,True,False,300,3,50,JT,56,False,1.0,55.0,trial_46f20eae-639b-449c-866e-5614365f4d10,0.0,1.0,0.42491293,,,,,,,,2.0,-1.0
2023-06-27_11h44.41.678,mid,False,True,False,300,3,50,JT,57,False,1.0,56.0,trial_260604e1-cce2-4269-a53c-536a230ad0bc,0.0,1.0,0.26625896,,,,,,,,2.0,-1.0
2023-06-27_11h44.41.678,mid,False,True,False,300,3,50,JT,58,True,1.0,57.0,trial_67171809-d722-4485-a550-334c726eec39,0.0,0.0,0.81939197,,,,9.168290897821176,-6.058159777306231,,0.9998947381973268,0.0,12.0
2023-06-27_11h44.41.678,mid,False,True,False,300,3,50,JT,59,False,1.0,58.0,trial_c98245c2-667b-40fb-9b9d-93fa999e62ff,0.0,1.0,0.584033,,,,,,,,2.0,-1.0
2023-06-27_11h44.41.678,mid,False,True,False,300,3,50,JT,60,True,1.0,59.0,trial_b427c8d2-552e-491b-898c-be506acedb82,1.0,1.0,0.41746616,0.4002149,5.796228993602599,5.380089476113181,4.608295610344341,5.38307904117007,1.1879371,1.022789716720581,0.0,42.0
2023-06-27_11h44.41.678,mid,False,True,False,300,3,50,JT,61,False,1.0,60.0,trial_985902c6-7916-44ee-913d-bbe1d4167011,0.0,1.0,0.42305112,,,,,,,,2.0,-1.0
2023-06-27_11h44.41.678,mid,False,True,False,300,3,50,JT,62,True,1.0,61.0,trial_eb5df92b-f48e-4b4d-a2ff-cc4e20513949,1.0,1.0,0.55885196,0.6797221,-4.949087832999141,3.1656327580444956,-5.284162110298001,2.455262211282096,0.7854305,1.0413960218429563,0.0,5.0
2023-06-27_11h44.41.678,mid,False,True,False,300,3,50,JT,63,True,1.0,62.0,trial_b9085686-1d29-45d9-b258-976711ffcdb3,0.0,0.0,0.40164995,,,,5.41884853601008,8.167730959531077,,0.929678738117218,0.0,28.0
2023-06-27_11h44.41.678,mid,False,True,False,300,3,50,JT,64,True,1.0,63.0,trial_41015912-36cd-422d-b7f8-0f674114d57c,0.0,0.0,0.543391,,,,-1.5358737353802188,-10.429346325430242,,1.0092586278915403,0.0,31.0
2023-06-27_11h44.41.678,mid,False,True,False,300,3,50,JT,65,False,1.0,64.0,trial_3f127d26-3a4d-48d2-85ac-de25ede34cd3,0.0,1.0,0.4024558,,,,,,,,2.0,-1.0
2023-06-27_11h44.41.678,mid,False,True,False,300,3,50,JT,66,False,1.0,65.0,trial_eb4b4393-fc69-4592-b678-5c0d3c33b6a7,0.0,1.0,0.41567183,,,,,,,,2.0,-1.0
2023-06-27_11h44.41.678,mid,False,True,False,300,3,50,JT,67,False,1.0,66.0,trial_b7ed8799-71d8-44bf-89fa-8686a3feb1a7,0.0,1.0,0.39071107,,,,,,,,2.0,-1.0
2023-06-27_11h44.41.678,mid,False,True,False,300,3,50,JT,68,True,1.0,67.0,trial_2ea6fe59-8e27-4ecc-8dcd-8ec72107724e,0.0,0.0,0.44241,,,,-5.3157072530914204,-10.347484882733214,,1.0057801008224487,0.0,32.0
2023-06-27_11h44.41.678,mid,False,True,False,300,3,50,JT,69,False,1.0,68.0,trial_a5b5c53c-a58e-43e1-9df0-8004ea211e41,0.0,1.0,0.25346708,,,,,,,,2.0,-1.0
2023-06-27_11h44.41.678,mid,False,True,False,300,3,50,JT,70,False,1.0,69.0,trial_472165e7-1bf0-4b93-9007-1d5f52b7c30e,0.0,1.0,0.42012596,,,,,,,,2.0,-1.0
2023-06-27_11h44.41.678,mid,False,True,False,300,3,50,JT,71,True,1.0,70.0,trial_a76a84ad-8eb3-4211-ba5b-232a5013ea9f,1.0,1.0,0.67607594,0.37595105,-5.692194114230244,-4.310016431140393,-9.8375365831078,-3.2348302988215143,4.28251,0.9929296374320984,0.0,66.0
2023-06-27_11h44.41.678,mid,False,True,False,300,3,50,JT,72,True,1.0,71.0,trial_e9ad2e25-db6a-4559-a4d8-fce0a7d140d1,1.0,1.0,0.4681301,0.65589905,-6.286679139215126,-3.34397826553996,-1.445096226727738,6.932652419177614,11.360021,0.9981024265289308,0.0,42.0
2023-06-27_11h44.41.678,mid,False,True,False,300,3,50,JT,73,False,1.0,72.0,trial_857a2bad-1b80-4041-b7f6-78f8ae4fe20f,0.0,1.0,0.2959199,,,,,,,,2.0,-1.0
2023-06-27_11h44.41.678,mid,False,True,False,300,3,50,JT,74,True,1.0,73.0,trial_7e5051c0-d03a-4c2e-b37d-4f3011951ec1,0.0,0.0,0.2846501,,,,7.677599923083457,-4.274394112876259,,1.0092586278915403,0.0,31.0
2023-06-27_11h44.41.678,mid,False,True,False,300,3,50,JT,75,False,1.0,74.0,trial_4a81da55-37ec-49e7-9503-336217d22d40,0.0,1.0,0.48878598,,,,,,,,2.0,-1.0
2023-06-27_11h44.41.678,mid,False,True,False,300,3,50,JT,76,False,1.0,75.0,trial_0733f43d-9322-4e06-854b-aa046e12ec8c,1.0,0.0,0.3635509,0.51165104,0.4904501456125275,-12.736841660301092,,,,,2.0,-1.0
2023-06-27_11h44.41.678,mid,False,True,False,300,3,50,JT,77,False,1.0,76.0,trial_7a6ecb4e-94b7-4d9c-b2e0-7c38e55fecc4,0.0,1.0,0.24901795,,,,,,,,2.0,-1.0
2023-06-27_11h44.41.678,mid,False,True,False,300,3,50,JT,78,False,1.0,77.0,trial_d363514f-c397-47e2-b6ad-4e73185142d4,0.0,1.0,0.246634,,,,,,,,2.0,-1.0
2023-06-27_11h44.41.678,mid,False,True,False,300,3,50,JT,79,False,1.0,78.0,trial_e8d208fe-831f-4d04-96d8-a6526e02466d,0.0,1.0,0.16414213,,,,,,,,2.0,-1.0
2023-06-27_11h44.41.678,mid,False,True,False,300,3,50,JT,80,False,1.0,79.0,trial_eb811632-8e3e-4128-8153-0650ede33821,0.0,1.0,0.18864799,,,,,,,,2.0,-1.0
2023-06-27_11h44.41.678,mid,False,True,False,300,3,50,JT,81,False,1.0,80.0,trial_8fad6ffc-be79-4512-a162-51c74c3f0f3a,0.0,1.0,0.20164704,,,,,,,,2.0,-1.0
2023-06-27_11h44.41.678,mid,False,True,False,300,3,50,JT,82,True,1.0,81.0,trial_8fb50ca9-e9cd-46c0-ba6b-410414f9f6f8,0.0,0.0,0.13724399,,,,-11.30539762491362,1.241707257940125,,0.958284556865692,0.0,28.0
2023-06-27_11h44.41.678,mid,False,True,False,300,3,50,JT,83,True,1.0,82.0,trial_71f1c59c-5aa7-4aca-bdbf-f31d668916aa,1.0,1.0,0.38970518,0.9362309,-5.053122712371495,-4.681569571755944,-4.2949646748591395,3.1883234540639926,7.9063277,0.9939753413200378,0.0,5.0
2023-06-27_11h44.41.678,mid,False,True,False,300,3,50,JT,84,False,1.0,83.0,trial_636541ea-2d5e-4ea8-b143-a467891d0b8c,1.0,0.0,0.7920079,0.48030305,7.222993053566314,0.65393352748337,,,,,2.0,-1.0
2023-06-27_11h44.41.678,mid,False,True,False,300,3,50,JT,85,True,1.0,84.0,trial_889982e7-0386-4d19-b8cf-c49ae127061b,1.0,1.0,0.21012211,0.6480639,7.5499598173079985,8.93213750039785,6.977224137715452,9.546231337579684,0.8397246,1.076143741607666,0.0,47.0
2023-06-27_11h44.41.678,mid,False,True,False,300,3,50,JT,86,False,1.0,85.0,trial_9b5a5d6d-b903-4910-8d72-4804bbb98c1b,1.0,0.0,0.20503807,0.52764106,-11.072283590343424,-3.2548055117922283,,,,,2.0,-1.0
2023-06-27_11h44.41.678,mid,False,True,False,300,3,50,JT,87,False,1.0,86.0,trial_8f7577ec-d32f-430b-a66d-a051f4e0f6c2,0.0,1.0,0.78833103,,,,,,,,2.0,-1.0
2023-06-27_11h44.41.678,mid,False,True,False,300,3,50,JT,88,False,1.0,87.0,trial_35ee0eaa-460e-40eb-adac-26281595b633,0.0,1.0,0.2202971,,,,,,,,2.0,-1.0
2023-06-27_11h44.41.678,mid,False,True,False,300,3,50,JT,89,False,1.0,88.0,trial_88750af5-4860-4583-a355-96e919a6a6c6,0.0,1.0,0.21364713,,,,,,,,2.0,-1.0
2023-06-27_11h44.41.678,mid,False,True,False,300,3,50,JT,90,True,1.0,89.0,trial_f1adcf9d-b8b8-4e1a-a279-198d87ca0a4c,0.0,0.0,0.26999807,,,,-7.129625528410846,5.883198894588204,,0.9900014996528624,0.0,51.0
2023-06-27_11h44.41.678,mid,False,True,False,300,3,50,JT,91,False,1.0,90.0,trial_d3411fbd-29dc-4a51-81ed-70af128af23b,0.0,1.0,0.31172085,,,,,,,,2.0,-1.0
2023-06-27_11h44.41.678,mid,False,True,False,300,3,50,JT,92,True,1.0,91.0,trial_ec5895ea-61bc-42d3-a154-1418ed2a5b9c,1.0,1.0,1.0070109,0.37562704,-4.057360295521819,5.603021360482511,-0.6706330063247614,-10.938961652369306,16.885115,1.0005711317062378,0.0,22.0
2023-06-27_11h44.41.678,mid,False,True,False,300,3,50,JT,93,False,1.0,92.0,trial_95f5da7c-9607-4c17-ba8e-a23d0bf7d00c,1.0,0.0,0.39365292,0.5998659,7.5945461941818655,-8.842964746650116,,,,,2.0,-1.0
2023-06-27_11h44.41.678,mid,False,True,False,300,3,50,JT,94,True,1.0,93.0,trial_1c8b7a41-86b6-4aff-a53d-89226d95d533,1.0,1.0,0.6733291,0.47181892,-9.675243781628954,-0.5647607737356378,-4.1687723403033665,3.211632719960697,6.6770034,1.0256428718566897,0.0,60.0
2023-06-27_11h44.41.678,mid,False,True,False,300,3,50,JT,95,False,1.0,94.0,trial_afe48a1c-6d92-4513-97f9-d602a3ec8981,0.0,1.0,0.40012097,,,,,,,,2.0,-1.0
2023-06-27_11h44.41.678,mid,False,True,False,300,3,50,JT,96,True,1.0,95.0,trial_3b0adb6c-e410-4373-b7e1-1dbc222a2dfb,0.0,0.0,0.7011242,,,,-4.704661033256495,-2.9085371730871987,,1.0129791498184204,0.0,68.0
2023-06-27_11h44.41.678,mid,False,True,False,300,3,50,JT,97,False,1.0,96.0,trial_78eb9101-db56-441d-b3de-92840847a516,1.0,0.0,0.68005085,0.5518639,-8.367376726662213,1.2632806780928738,,,,,2.0,-1.0
2023-06-27_11h44.41.678,mid,False,True,False,300,3,50,JT,98,True,1.0,97.0,trial_9a361bcd-8040-478c-aa69-a4c2548ec3c6,0.0,0.0,1.276176,,,,6.424196798919981,9.173102212047906,,0.9886699318885804,0.0,74.0
2023-06-27_11h44.41.678,mid,False,True,False,300,3,50,JT,99,True,1.0,98.0,trial_12e9a94d-a914-435c-9e9b-863f0bff79de,0.0,0.0,0.3257749,,,,9.72142054041533,-4.250090504377552,,1.0129791498184204,0.0,68.0
2023-06-27_11h44.41.678,mid,False,True,False,300,3,50,JT,100,True,1.0,99.0,trial_fceac9ff-f39c-473d-bbcf-a0be1b85c094,0.0,0.0,0.37558508,,,,-5.138468682888159,2.8807025118532956,,0.9929296374320984,0.0,66.0
2023-06-27_15h07.28.705,mid,False,True,False,300,4,50,HT,1,True,1.0,0.0,trial_cf93b5f2-4670-464e-a7b8-ac20c7e6338b,0.0,0.0,1.083538,,,,-2.148226972928187,4.555919388088164,,0.9886699318885804,0.0,74.0
2023-06-27_15h07.28.705,mid,False,True,False,300,4,50,HT,2,False,1.0,1.0,trial_99c89fc5-7bde-4e1e-8dcb-d1a8f5b49071,0.0,1.0,0.72861195,,,,,,,,3.0,-1.0
2023-06-27_15h07.28.705,mid,False,True,False,300,4,50,HT,3,False,1.0,2.0,trial_d9b75289-6226-4f52-a986-1ee285862be7,0.0,1.0,0.7681489,,,,,,,,3.0,-1.0
2023-06-27_15h07.28.705,mid,False,True,False,300,4,50,HT,4,True,1.0,3.0,trial_93998829-249d-4c39-be86-d55bf401034e,1.0,1.0,0.6448989,0.3998711,1.8874899543269996,-9.288828515388778,0.4238152938007827,-8.275487027639695,1.780226,0.997423529624939,0.0,0.0
2023-06-27_15h07.28.705,mid,False,True,False,300,4,50,HT,5,False,1.0,4.0,trial_7cee3eb9-62b7-405a-b520-999b9c9f4f8c,0.0,1.0,0.48510385,,,,,,,,3.0,-1.0
2023-06-27_15h07.28.705,mid,False,True,False,300,4,50,HT,6,True,1.0,5.0,trial_9e36d344-84c9-42d8-8696-a27d13d1dd95,0.0,0.0,0.91962194,,,,9.2060399873717,5.097595932737872,,0.992530107498169,0.0,59.0
2023-06-27_15h07.28.705,mid,False,True,False,300,4,50,HT,7,False,1.0,6.0,trial_5b021842-4758-43d2-9773-c4dab3ab1fc0,1.0,0.0,0.7484951,0.28778505,5.900263872974953,-3.7155314061555114,,,,,3.0,-1.0
2023-06-27_15h07.28.705,mid,False,True,False,300,4,50,HT,8,True,1.0,7.0,trial_798b078e-1d80-43ba-84c6-20b3aa49e13d,0.0,0.0,0.35428786,,,,3.9595516444824694,8.169219969102194,,0.9917131662368774,0.0,21.0
2023-06-27_15h07.28.705,mid,False,True,False,300,4,50,HT,9,False,1.0,8.0,trial_d55bfc8f-2ba0-42e4-89ae-120f4befa3d1,0.0,1.0,0.5693779,,,,,,,,3.0,-1.0
2023-06-27_15h07.28.705,mid,False,True,False,300,4,50,HT,10,True,1.0,9.0,trial_d2f56ea8-d016-4acb-b2ef-c2745eb1e825,0.0,0.0,0.56738186,,,,10.712785224626458,6.363488224012025,,1.0064027309417725,0.0,64.0
2023-06-27_15h07.28.705,mid,False,True,False,300,4,50,HT,11,True,1.0,10.0,trial_9deb5a05-ccc1-498e-b35d-067082f0e493,1.0,1.0,0.622704,0.2954371,5.127433340494606,-3.12104638117063,-9.40385101604404,-0.0474551121946662,14.852784,1.0005711317062378,0.0,22.0
2023-06-27_15h07.28.705,mid,False,True,False,300,4,50,HT,12,False,1.0,11.0,trial_062c69cc-d82f-4a66-8e6d-324e4cd267f7,0.0,1.0,0.6519258,,,,,,,,3.0,-1.0
2023-06-27_15h07.28.705,mid,False,True,False,300,4,50,HT,13,True,1.0,12.0,trial_3a7db97b-84db-438f-8280-a98e6601b70b,1.0,1.0,1.0305662,0.37578177,8.010685711671282,-6.881164164200008,9.24050418694311,-9.081938681513346,2.5210836,0.990826427936554,0.0,47.0
2023-06-27_15h07.28.705,mid,False,True,False,300,4,50,HT,14,True,1.0,13.0,trial_f248d1d8-3a46-406a-9631-1394c13907d5,1.0,1.0,1.4933851,0.351861,9.883313540373662,-7.416200686686402,-6.749173710192647,8.22721709023281,22.833225,0.9790334701538086,0.0,5.0
2023-06-27_15h07.28.705,mid,False,True,False,300,4,50,HT,15,True,1.0,14.0,trial_16e4cc33-e5f8-49f4-8bfb-d1892b3d1b53,1.0,1.0,0.6238289,0.2562809,-6.331265516088991,-3.091322129921385,-10.09290310329031,-3.905647469926718,3.8487716,1.0005711317062378,0.0,22.0
2023-06-27_15h07.28.705,mid,False,True,False,300,4,50,HT,16,False,1.0,15.0,trial_447bb45b-6b0e-4307-8685-3f7881123b39,0.0,1.0,0.471627,,,,,,,,3.0,-1.0
2023-06-27_15h07.28.705,mid,False,True,False,300,4,50,HT,17,True,1.0,16.0,trial_4959056a-cb07-4d2f-b5c9-9ba2d3569226,1.0,1.0,0.600585,0.51169896,-4.889639330500653,-10.96824871097107,-4.121088406067747,-12.156188414827431,1.414875,0.992530107498169,0.0,59.0
2023-06-27_15h07.28.705,mid,False,True,False,300,4,50,HT,18,False,1.0,17.0,trial_7382e0b9-dba1-488f-b904-ae85f4f29df6,0.0,1.0,0.8511741,,,,,,,,3.0,-1.0
2023-06-27_15h07.28.705,mid,False,True,False,300,4,50,HT,19,False,1.0,18.0,trial_e131dfed-e4a5-497d-bfdb-f4009aed211b,0.0,1.0,0.34132814,,,,,,,,3.0,-1.0
2023-06-27_15h07.28.705,mid,False,True,False,300,4,50,HT,20,False,1.0,19.0,trial_bd72beda-e7bd-4a8d-ac8a-721bbee14c49,0.0,1.0,0.69115806,,,,,,,,3.0,-1.0
2023-06-27_15h07.28.705,mid,False,True,False,300,4,50,HT,21,True,1.0,20.0,trial_e8dc803b-7194-41c1-a42b-a368a0fdffe4,1.0,1.0,0.45296407,0.34442806,7.5945461941818655,-0.9363139143511888,-2.5153164513236907,12.014829164485084,16.429893,0.9981024265289308,0.0,56.0
2023-06-27_15h07.28.705,mid,False,True,False,300,4,50,HT,22,False,1.0,21.0,trial_3952c533-cad4-46f5-882b-d428e5a14487,0.0,1.0,0.6404879,,,,,,,,3.0,-1.0
2023-06-27_15h07.28.705,mid,False,True,False,300,4,50,HT,23,False,1.0,22.0,trial_dd820742-7c2d-4a31-be20-96ceb4d48bf2,0.0,1.0,0.46733785,,,,,,,,3.0,-1.0
2023-06-27_15h07.28.705,mid,False,True,False,300,4,50,HT,24,False,1.0,23.0,trial_792f4b98-d0a7-469a-95b1-e7959f938aad,0.0,1.0,0.7638049,,,,,,,,3.0,-1.0
2023-06-27_15h07.28.705,mid,False,True,False,300,4,50,HT,25,False,1.0,24.0,trial_97776213-3318-4234-a4fb-90a8cd28bd2a,1.0,0.0,1.064369,0.42382407,-7.237855179190936,6.658232279830678,,,,,3.0,-1.0
2023-06-27_15h07.28.705,mid,False,True,False,300,4,50,HT,26,True,1.0,25.0,trial_f8665dbe-096b-462c-a7ed-cd9013252c41,1.0,1.0,0.35478902,0.488281,-11.503285233457463,-6.197506385467393,-11.015928553760832,-6.149964834938673,0.48967004,1.006396770477295,0.0,55.0
2023-06-27_15h07.28.705,mid,False,True,False,300,4,50,HT,27,False,1.0,26.0,trial_6acf2e7a-98ec-44ce-9c1e-9a4ba426d5ef,0.0,1.0,0.540534,,,,,,,,3.0,-1.0
2023-06-27_15h07.28.705,mid,False,True,False,300,4,50,HT,28,True,1.0,27.0,trial_49bf3c00-8461-4733-bc0f-ea38e7ba243a,1.0,1.0,0.47929788,0.59188604,2.3630779743149053,8.397100977911457,-3.362656703275158,6.014926692289672,6.201515,0.9727528691291808,0.0,0.0
2023-06-27_15h07.28.705,mid,False,True,False,300,4,50,HT,29,True,1.0,28.0,trial_279a47ea-5e43-4d67-be5a-2864bdbaa504,1.0,1.0,0.3395369,0.39983392,3.076460004296764,5.825953244851842,2.9170814889021845,6.402299169149889,0.5979767,1.01024067401886,0.0,13.0
2023-06-27_15h07.28.705,mid,False,True,False,300,4,50,HT,30,False,1.0,29.0,trial_29ed61dc-5783-4507-8acb-5cb6c0470bbd,1.0,0.0,0.46019602,0.2478671,-1.8280414518285115,-5.246330345491582,,,,,3.0,-1.0
2023-06-27_15h07.28.705,mid,False,True,False,300,4,50,HT,31,True,1.0,30.0,trial_4b9edfcf-1902-43b4-aebb-8b1f93f660cb,0.0,0.0,1.1132989,,,,-11.88263918448151,4.168994934011709,,1.0000357627868652,0.0,73.0
2023-06-27_15h07.28.705,mid,False,True,False,300,4,50,HT,32,False,1.0,31.0,trial_7eb2466b-53b1-4de5-8516-02f5c9992e31,0.0,1.0,0.81938696,,,,,,,,3.0,-1.0
2023-06-27_15h07.28.705,mid,False,True,False,300,4,50,HT,33,False,1.0,32.0,trial_fbee03a7-10b1-49cc-8620-aa4cd5423d0d,0.0,1.0,0.81699586,,,,,,,,3.0,-1.0
2023-06-27_15h07.28.705,mid,False,True,False,300,4,50,HT,34,True,1.0,33.0,trial_ba0eb36b-a8a3-4e58-a17e-cde58b43e542,1.0,1.0,0.77422595,0.535794,10.90880020847258,5.885401747350331,9.584345794060548,7.411513250978813,2.0206919,0.9980065822601318,0.0,23.0
2023-06-27_15h07.28.705,mid,False,True,False,300,4,50,HT,35,False,1.0,34.0,trial_efd1ed4d-c368-4a43-8057-49c7c60d39fe,0.0,1.0,0.45439315,,,,,,,,3.0,-1.0
2023-06-27_15h07.28.705,mid,False,True,False,300,4,50,HT,36,False,1.0,35.0,trial_8d79f51d-92ce-49a6-a4ca-ef8a0bd6093e,1.0,0.0,0.540282,0.4240961,8.293066098539104,6.375851892962857,,,,,3.0,-1.0
2023-06-27_15h07.28.705,mid,False,True,False,300,4,50,HT,37,True,1.0,36.0,trial_7805b593-254a-4a8c-8e52-51d8655d2a35,0.0,0.0,1.1683121,,,,-7.601435972441326,-9.118200173580982,,0.929678738117218,0.0,28.0
2023-06-27_15h07.28.705,mid,False,True,False,300,4,50,HT,38,True,1.0,37.0,trial_a7d2f787-496d-40eb-bb1d-4bcd4287e7c3,1.0,1.0,0.50625896,0.34383512,3.7303935317801336,-5.781366867977976,4.793517520632114,-5.67374317734362,1.0685576,1.0054510831832886,0.0,64.0
2023-06-27_15h07.28.705,mid,False,True,False,300,4,50,HT,39,False,1.0,38.0,trial_4ecba800-4959-41e7-924f-d8f932d64d72,0.0,1.0,0.5888171,,,,,,,,3.0,-1.0
2023-06-27_15h07.28.705,mid,False,True,False,300,4,50,HT,40,False,1.0,39.0,trial_4dce904f-d71e-4b4a-a37e-4bb7d1a73245,1.0,0.0,1.0302441,0.31984186,-7.104096048569338,5.394951601737803,,,,,3.0,-1.0
2023-06-27_15h07.28.705,mid,False,True,False,300,4,50,HT,41,True,1.0,40.0,trial_c4402f5f-3aba-4917-a1bb-c0f5f06a6a69,1.0,1.0,0.44420123,0.36010003,-1.9766627080747323,10.552109193481654,-1.059925173959881,10.849170925846082,0.9636666,0.9936248064041138,0.0,36.0
2023-06-27_15h07.28.705,mid,False,True,False,300,4,50,HT,42,True,1.0,41.0,trial_4d329157-f161-4d49-9f0e-0229733219ea,1.0,1.0,0.5607109,0.44765878,5.08284696362074,-9.690105907253574,5.3823297478006005,-11.536941083664566,1.8709596,0.9924787878990172,0.0,55.0
2023-06-27_15h07.28.705,mid,False,True,False,300,4,50,HT,43,True,1.0,42.0,trial_3b65f86f-1909-40a3-94e9-69499661ef1b,0.0,0.0,0.5392711,,,,-7.74179333855274,1.4685138028196196,,1.0054510831832886,0.0,64.0
2023-06-27_15h07.28.705,mid,False,True,False,300,4,50,HT,44,True,1.0,43.0,trial_9b9e4ecf-0b2d-4eba-8b21-7d25a30f7ef9,1.0,1.0,0.4947381,0.48764396,12.454461273433274,0.3566910149909291,12.870098646384484,0.2202097619880827,0.43747178,0.99186372756958,0.0,28.0
2023-06-27_15h07.28.705,mid,False,True,False,300,4,50,HT,45,True,1.0,44.0,trial_7975d9d5-5141-4685-b11f-3161921b24fa,1.0,1.0,0.52380395,0.3843069,-1.96180058245011,5.409813727362425,-7.126812536432837,5.038403563002235,5.1783485,0.9991062879562378,0.0,1.0
2023-06-27_15h07.28.705,mid,False,True,False,300,4,50,HT,46,False,1.0,45.0,trial_db96a26b-f483-43d6-816f-19f45c06584b,1.0,0.0,0.49650598,0.43161893,-1.010624542474299,11.428974605334352,,,,,3.0,-1.0
2023-06-27_15h07.28.705,mid,False,True,False,300,4,50,HT,47,True,1.0,46.0,trial_6639d06f-c35f-4cca-8e6f-3b4c13e707e6,1.0,1.0,0.49403906,0.672354,-3.8492905367771098,8.397100977911457,-4.21928140093467,-5.9167890010611925,14.318671,1.020013451576233,0.0,28.0
2023-06-27_15h07.28.705,mid,False,True,False,300,4,50,HT,48,True,1.0,47.0,trial_da999f15-0b49-4f2a-888b-c280a0d38862,1.0,1.0,0.56943107,0.3600421,-10.16569392724148,-7.564821942932621,-8.966940233036256,-3.1560963608264845,4.5687933,0.992530107498169,0.0,31.0
2023-06-27_15h07.28.705,mid,False,True,False,300,4,50,HT,49,True,1.0,48.0,trial_447cba14-74a7-4f53-a121-365443d8bb54,1.0,1.0,1.711921,0.2554469,-4.845052953626787,-4.963949958623763,-11.494094197741076,-0.0933583756921784,8.242112,1.006396770477295,0.0,39.0
2023-06-27_15h07.28.705,mid,False,True,False,300,4,50,HT,50,True,1.0,49.0,trial_3c743e7c-48e0-4f8c-836b-634d32dec2d2,1.0,1.0,1.812437,0.30398607,-1.902352079951622,-8.084996339794392,-4.432061354436788,-5.839843958891289,3.3823273,0.9947356581687928,0.0,30.0
2023-06-27_15h07.28.705,mid,False,True,False,300,4,50,HT,51,False,1.0,50.0,trial_5bb69f6a-d1a5-4de5-b156-378f111a2449,0.0,1.0,0.48825192,,,,,,,,3.0,-1.0
2023-06-27_15h07.28.705,mid,False,True,False,300,4,50,HT,52,True,1.0,51.0,trial_c92e5772-0215-40d0-a5c7-ade7a58f5e2f,1.0,1.0,0.788044,0.38385892,5.632745611731755,7.371614309812535,5.189153745036666,5.49083262056134,1.9323854,1.0092573165893557,0.0,36.0
2023-06-27_15h07.28.705,mid,False,True,False,300,4,50,HT,53,False,1.0,52.0,trial_c116c78d-f6bd-431e-b426-f8c38af9fe52,0.0,1.0,0.71836615,,,,,,,,3.0,-1.0
2023-06-27_15h07.28.705,mid,False,True,False,300,4,50,HT,54,True,1.0,53.0,trial_71b721a2-9859-45f9-ae46-7263dbd2b1f3,0.0,0.0,0.700969,,,,-6.247175511048207,1.8951535931956027,,0.9980065822601318,0.0,54.0
2023-06-27_15h07.28.705,mid,False,True,False,300,4,50,HT,55,False,1.0,54.0,trial_196df4ad-8adf-425b-b877-931ee556f5a9,0.0,1.0,0.6649761,,,,,,,,3.0,-1.0
2023-06-27_15h07.28.705,mid,False,True,False,300,4,50,HT,56,False,1.0,55.0,trial_296de490-ebed-4f58-adfd-16973202f2da,0.0,1.0,0.8632679,,,,,,,,3.0,-1.0
2023-06-27_15h07.28.705,mid,False,True,False,300,4,50,HT,57,False,1.0,56.0,trial_70d6106d-81f3-4ad5-8235-39c2d5d20a2d,0.0,1.0,0.8585329,,,,,,,,3.0,-1.0
2023-06-27_15h07.28.705,mid,False,True,False,300,4,50,HT,58,False,1.0,57.0,trial_4fc69d78-8e46-46e8-95c5-7dcd6ca5a024,0.0,1.0,0.982008,,,,,,,,3.0,-1.0
2023-06-27_15h07.28.705,mid,False,True,False,300,4,50,HT,59,True,1.0,58.0,trial_2c286e72-b996-4f61-bbf9-2c06fda7c6b9,1.0,1.0,1.6292448,0.27139282,4.651845320506701,6.583921651707566,6.64180524952669,-5.496980862527495,12.243698,1.0085867643356323,0.0,7.0
2023-06-27_15h07.28.705,mid,False,True,False,300,4,50,HT,60,False,1.0,59.0,trial_fdf84770-efcc-4177-b724-c58a34d148c3,1.0,0.0,0.75228906,0.29577208,-11.815389871574526,-0.4904501456125275,,,,,3.0,-1.0
2023-06-27_15h07.28.705,mid,False,True,False,300,4,50,HT,61,False,1.0,60.0,trial_33a4542e-2399-46d8-82d4-01a4da78be84,0.0,1.0,0.7201481,,,,,,,,3.0,-1.0
2023-06-27_15h07.28.705,mid,False,True,False,300,4,50,HT,62,True,1.0,61.0,trial_4d25193a-56a9-44d5-90d6-6be259081408,0.0,0.0,1.0624161,,,,-6.928733591060057,10.204894096720585,,0.9902483820915222,0.0,64.0
2023-06-27_15h07.28.705,mid,False,True,False,300,4,50,HT,63,True,1.0,62.0,trial_6d21c8e3-ab21-4c70-b641-208c5e1aa528,1.0,1.0,0.36963677,0.43187785,6.747405033578409,-1.8577657030777557,6.772913974360315,-1.794702555809491,0.06802695,0.9929296374320984,0.0,18.0
2023-06-27_15h07.28.705,mid,False,True,False,300,4,50,HT,64,True,1.0,63.0,trial_e72bffd8-517d-4c52-b632-dbe1087330d4,0.0,0.0,0.60459805,,,,-6.673981615978962,7.849521828118761,,1.0129791498184204,0.0,68.0
2023-06-27_15h07.28.705,mid,False,True,False,300,4,50,HT,65,False,1.0,64.0,trial_6d8463dd-fc09-48d4-a316-2c9fd620b3e7,0.0,1.0,0.5462351,,,,,,,,3.0,-1.0
2023-06-27_15h07.28.705,mid,False,True,False,300,4,50,HT,66,True,1.0,65.0,trial_80b64e64-d4e0-4481-9500-c524863ed143,1.0,1.0,0.87089705,0.39974904,7.222993053566314,1.991524833699354,-4.1384224524854,-2.836387355754314,12.344655,1.0092573165893557,0.0,36.0
2023-06-27_15h07.28.705,mid,False,True,False,300,4,50,HT,67,False,1.0,66.0,trial_d471b9cc-d015-401c-bfb9-54a55f48adb1,0.0,1.0,0.44163394,,,,,,,,3.0,-1.0
2023-06-27_15h07.28.705,mid,False,True,False,300,4,50,HT,68,True,1.0,67.0,trial_3e0fbaac-6d34-4ff3-9f1f-9cd227c5a1c1,0.0,0.0,1.2700441,,,,6.690546955020812,3.4691905728993953,,1.0256428718566897,0.0,60.0
2023-06-27_15h07.28.705,mid,False,True,False,300,4,50,HT,69,False,1.0,68.0,trial_5ceea4cb-b757-4d81-a251-b64043c46cb3,0.0,1.0,2.2409399,,,,,,,,3.0,-1.0
2023-06-27_15h07.28.705,mid,False,True,False,300,4,50,HT,70,False,1.0,69.0,trial_e93234ae-eeb9-445d-a7aa-cab77768797d,0.0,1.0,1.3665979,,,,,,,,3.0,-1.0
2023-06-27_15h07.28.705,mid,False,True,False,300,4,50,HT,71,False,1.0,70.0,trial_896d0d52-ebcf-4f10-b59f-ecdaf31a503f,0.0,1.0,0.895138,,,,,,,,3.0,-1.0
2023-06-27_15h07.28.705,mid,False,True,False,300,4,50,HT,72,True,1.0,71.0,trial_98ee1524-07a0-46ce-8bd4-644fb6312c38,1.0,1.0,0.6163969,0.9358959,6.152920008593528,8.233617596040613,-2.327777902987954,7.786388553283343,8.492482,1.0037909746170044,0.0,7.0
2023-06-27_15h07.28.705,mid,False,True,False,300,4,50,HT,73,True,1.0,72.0,trial_61b282e0-7300-465f-88c1-f28bdfcc0f96,1.0,1.0,0.5080359,1.1041551,1.6348338187084253,8.93213750039785,2.760944866113939,9.24857759347045,1.1697266,0.9902483820915222,0.0,64.0
2023-06-27_15h07.28.705,mid,False,True,False,300,4,50,HT,74,False,1.0,73.0,trial_7778cd3a-7898-4f7e-97ec-436ecf539510,0.0,1.0,0.83385897,,,,,,,,3.0,-1.0
2023-06-27_15h07.28.705,mid,False,True,False,300,4,50,HT,75,False,1.0,74.0,trial_6c61ecef-0863-4c5f-9177-2e68303c47a8,0.0,1.0,0.85789514,,,,,,,,3.0,-1.0
2023-06-27_15h07.28.705,mid,False,True,False,300,4,50,HT,76,True,1.0,75.0,trial_97dee3dd-b3e4-4219-b676-c1c1d9dd88e9,1.0,1.0,1.229218,0.47982907,10.344039434736946,3.12104638117063,12.256915128760502,3.1959675597551938,1.9143423,1.0085867643356323,0.0,7.0
2023-06-27_15h07.28.705,mid,False,True,False,300,4,50,HT,77,True,1.0,76.0,trial_ab7814ee-6e68-4e96-824e-a0be9e761342,1.0,1.0,0.673548,0.58407116,8.991586002896337,-2.2144567180686847,10.352828797255343,-4.094270741957846,2.3209229,0.9917131662368774,0.0,21.0
2023-06-27_15h07.28.705,mid,False,True,False,300,4,50,HT,78,True,1.0,77.0,trial_304aae37-dda4-4fa6-8981-edd8c47283b0,1.0,1.0,0.634707,0.5753751,12.112632384066968,2.318491597441039,11.603540952865185,2.2347911558801408,0.5159262,0.9947356581687928,0.0,30.0
2023-06-27_15h07.28.705,mid,False,True,False,300,4,50,HT,79,True,1.0,78.0,trial_0eb09b99-9384-4beb-853b-e0f83545c285,0.0,0.0,0.97200084,,,,5.938012711661058,3.527261901388448,,0.99186372756958,0.0,28.0
2023-06-27_15h07.28.705,mid,False,True,False,300,4,50,HT,80,True,1.0,79.0,trial_e7c8b3e0-7a26-4cf4-8a2f-3820556668d4,0.0,0.0,0.7695651,,,,-3.013705435582888,-4.520829925127353,,0.9998947381973268,0.0,12.0
2023-06-27_15h07.28.705,mid,False,True,False,300,4,50,HT,81,False,1.0,80.0,trial_ba2151d7-7324-4d03-a619-21cb6e55d092,0.0,1.0,0.80684996,,,,,,,,3.0,-1.0
2023-06-27_15h07.28.705,mid,False,True,False,300,4,50,HT,82,False,1.0,81.0,trial_dee09e58-402d-464f-a506-7b760911686e,0.0,1.0,0.89132595,,,,,,,,3.0,-1.0
2023-06-27_15h07.28.705,mid,False,True,False,300,4,50,HT,83,False,1.0,82.0,trial_b742d9ac-de09-4b52-97b7-4b34072facb1,1.0,0.0,1.4686148,0.45594597,7.341890058563291,4.681569571755944,,,,,3.0,-1.0
2023-06-27_15h07.28.705,mid,False,True,False,300,4,50,HT,84,True,1.0,83.0,trial_3b61e835-6378-4b1d-a5d2-c78db9633851,0.0,0.0,0.5623982,,,,-1.4967998442618156,-6.412568487761031,,0.9998947381973268,0.0,72.0
2023-06-27_15h07.28.705,mid,False,True,False,300,4,50,HT,85,False,1.0,84.0,trial_2645905d-36a2-47a6-b7df-65541e0ac9ac,0.0,1.0,0.5765841,,,,,,,,3.0,-1.0
2023-06-27_15h07.28.705,mid,False,True,False,300,4,50,HT,86,True,1.0,85.0,trial_d5638d0c-81ac-4bfa-b108-5a2ab4e6ccc1,1.0,1.0,0.601918,0.43229485,-10.418350062860055,1.6199716930838028,-10.399342034223409,1.7258489803407058,0.10757,1.0005711317062378,0.0,22.0
2023-06-27_15h07.28.705,mid,False,True,False,300,4,50,HT,87,True,1.0,86.0,trial_0128a1ef-35a9-4b1f-9cf0-80565aec0bbb,0.0,0.0,0.672981,,,,-1.7307835976382109,-4.800790206669416,,0.9991062879562378,0.0,1.0
2023-06-27_15h07.28.705,mid,False,True,False,300,4,50,HT,88,False,1.0,87.0,trial_59a6d441-5fe0-4873-9524-1753f601fe35,1.0,0.0,0.929584,0.7280278,10.96824871097107,5.692194114230244,,,,,3.0,-1.0
2023-06-27_15h07.28.705,mid,False,True,False,300,4,50,HT,89,False,1.0,88.0,trial_82eb0876-ef15-4c56-bf9e-21a942ef1489,0.0,1.0,0.53406,,,,,,,,3.0,-1.0
2023-06-27_15h07.28.705,mid,False,True,False,300,4,50,HT,90,True,1.0,89.0,trial_1a28e331-80b3-42e6-b351-74faa79a8e90,1.0,1.0,0.57633615,0.3119912,3.046735753047519,-6.643370154206055,2.0472798629941007,-6.362755538032803,1.0381024,1.020013451576233,0.0,28.0
2023-06-27_15h07.28.705,mid,False,True,False,300,4,50,HT,91,False,1.0,90.0,trial_600108af-b006-4377-99fa-07f184e55657,0.0,1.0,0.75341105,,,,,,,,3.0,-1.0
2023-06-27_15h07.28.705,mid,False,True,False,300,4,50,HT,92,True,1.0,91.0,trial_47c4ee6e-b9c0-457d-a560-61fdb681ecbd,1.0,1.0,0.89308,0.4161911,-9.199655761641049,3.760117783029378,1.993161693700195,5.159130671307499,11.279911,0.9902483820915222,0.0,64.0
2023-06-27_15h07.28.705,mid,False,True,False,300,4,50,HT,93,False,1.0,92.0,trial_51f6fd0a-467d-419a-93cd-3270b1327486,0.0,1.0,0.61338186,,,,,,,,3.0,-1.0
2023-06-27_15h07.28.705,mid,False,True,False,300,4,50,HT,94,False,1.0,93.0,trial_ed074458-16f2-4b2e-ab27-9105f5ff868e,0.0,1.0,0.972059,,,,,,,,3.0,-1.0
2023-06-27_15h07.28.705,mid,False,True,False,300,4,50,HT,95,False,1.0,94.0,trial_b5730363-0c8a-4da1-868d-74d18d464f57,0.0,1.0,0.5279379,,,,,,,,3.0,-1.0
2023-06-27_15h07.28.705,mid,False,True,False,300,4,50,HT,96,False,1.0,95.0,trial_86f3c2c9-8d55-4827-a66d-f590cc9a02dc,0.0,1.0,0.5532,,,,,,,,3.0,-1.0
2023-06-27_15h07.28.705,mid,False,True,False,300,4,50,HT,97,False,1.0,96.0,trial_e6a91914-6d41-4235-a579-551cf113d2de,0.0,1.0,0.49391985,,,,,,,,3.0,-1.0
2023-06-27_15h07.28.705,mid,False,True,False,300,4,50,HT,98,True,1.0,97.0,trial_a99c68d6-5387-496b-b107-ab7ee1dc2c71,0.0,0.0,0.61873007,,,,6.990979918032969,-2.2015738554549835,,0.9939753413200378,0.0,5.0
2023-06-27_15h07.28.705,mid,False,True,False,300,4,50,HT,99,True,1.0,98.0,trial_e715871f-4743-4c3b-85ed-d40a09a00a49,1.0,1.0,0.402493,0.51962304,6.286679139215126,6.108333631719661,-9.084790622644336,4.722012528046588,15.433858,0.954700529575348,0.0,20.0
2023-06-27_15h07.28.705,mid,False,True,False,300,4,50,HT,100,True,1.0,99.0,trial_7cdb161a-5a68-49e1-b729-224d2353061f,0.0,0.0,0.8075361,,,,2.085904698578338,6.15806718498381,,0.9917131662368774,0.0,21.0
2023-06-26_11h23.27.039,low,False,True,True,300,2,10,NS,1,False,1.0,0.0,trial_1abb3ce8-5e68-4cfd-8603-f9959435c293,0.0,1.0,4.629335,,,,,,,,1.0,-1.0
2023-06-26_11h23.27.039,low,False,True,True,300,2,10,NS,2,False,1.0,1.0,trial_af2debd1-e843-4509-b9f3-d5b75f46ff1a,0.0,1.0,0.756732,,,,,,,,1.0,-1.0
2023-06-26_11h23.27.039,low,False,True,True,300,2,10,NS,3,False,1.0,2.0,trial_29209c31-151f-439b-b6a4-191b3d9f91f3,0.0,1.0,1.1531901,,,,,,,,1.0,-1.0
2023-06-26_11h23.27.039,low,False,True,True,300,2,10,NS,4,False,1.0,3.0,trial_5b8ea8f4-ac29-4b1c-b11f-6464e50550ef,1.0,0.0,1.138159,1.6893821,3.225081260542984,-8.189031219166749,,,,,1.0,-1.0
2023-06-26_11h23.27.039,low,False,True,True,300,2,10,NS,5,True,1.0,4.0,trial_49853455-0f74-44aa-9475-903a436a73dc,1.0,1.0,1.1263311,1.2893939,9.482036148508866,4.414051310512748,9.526654487401489,3.6174058263750393,0.797894,0.5170249342918396,0.0,69.0
2023-06-26_11h23.27.039,low,False,True,True,300,2,10,NS,6,False,1.0,5.0,trial_a4947e77-1e7e-42a5-9a23-fc60781abbe7,1.0,0.0,1.056047,1.3378639,8.099858465419015,0.5350365224863937,,,,,1.0,-1.0
2023-06-26_11h23.27.039,low,False,True,True,300,2,10,NS,7,True,1.0,6.0,trial_bca72cee-fc0e-469c-8efd-d97e769d818d,0.0,0.0,0.83069897,,,,-9.31734922102591,0.1140253967718739,,0.6629336476325989,0.0,41.0
2023-06-26_11h23.27.039,low,False,True,True,300,2,10,NS,8,True,1.0,7.0,trial_ea7a0f88-6d64-441d-b6ce-8c115e5402b9,1.0,1.0,3.014567,1.193578,-5.707056239854865,3.819566285527866,-4.933464565363827,2.7270299593732736,1.3386859,0.6629336476325989,0.0,41.0
2023-06-26_11h23.27.039,low,False,True,True,300,2,10,NS,9,False,1.0,8.0,trial_0cda85f1-c304-4049-8e8a-64d834541ef2,0.0,1.0,0.8255069,,,,,,,,1.0,-1.0
2023-06-26_11h23.27.039,low,False,True,True,300,2,10,NS,10,False,1.0,9.0,trial_c0838796-78b4-4ae8-8a85-2ce34f936dc8,1.0,0.0,1.218323,2.570323,8.307928224163723,4.666707446131324,,,,,1.0,-1.0
2023-06-26_11h23.27.039,low,False,True,True,300,2,10,NS,11,True,1.0,10.0,trial_8ac23cc8-e537-4443-a685-0818f63021d2,1.0,1.0,2.0216,1.5539939,6.0637472548457945,10.135969675992236,5.256659571019123,10.872442381594544,1.0926036,0.5090845227241516,0.0,51.0
2023-06-26_11h23.27.039,low,False,True,True,300,2,10,NS,12,False,1.0,11.0,trial_46c12a04-d9db-4ff1-89d9-1ffb9452e9c7,1.0,0.0,2.17713,1.1457582,-6.450162521085968,0.995762416849677,,,,,1.0,-1.0
2023-06-26_11h23.27.039,low,False,True,True,300,2,10,NS,13,True,1.0,12.0,trial_49ef9963-6ca4-49ff-b782-4d771a596b64,1.0,1.0,1.3572879,1.1298361,7.802615952926573,1.946938456825488,7.520634749555608,1.159522235083922,0.8363837,0.5041901469230652,0.0,40.0
2023-06-26_11h23.27.039,low,False,True,True,300,2,10,NS,14,True,1.0,13.0,trial_867d007f-3444-48e1-8d92-584718de23d9,1.0,1.0,2.3147118,1.2422171,-7.178406676692448,0.2823803868678189,-8.207088521966627,-0.8146643791055798,1.5038928,0.5170249342918396,0.0,4.0
2023-06-26_11h23.27.039,low,False,True,True,300,2,10,NS,15,True,1.0,14.0,trial_8cc0e33a-441e-4591-80b9-001f388b92ee,1.0,1.0,1.0980129,1.210274,4.042498169897196,-8.233617596040613,2.1454252148189585,-8.095634881178883,1.9020844,0.5450325012207031,0.0,39.0
2023-06-26_11h23.27.039,low,False,True,True,300,2,10,NS,16,True,1.0,15.0,trial_e2cacb23-1873-41ef-8ade-d67b63e0fa83,1.0,1.0,1.0873022,0.969825,-4.414051310512748,5.097709089245362,-3.132885701060754,5.027429145724736,1.2830918,0.5323181748390198,0.0,31.0
2023-06-26_11h23.27.039,low,False,True,True,300,2,10,NS,17,True,1.0,16.0,trial_c68da158-3fad-4872-9091-fc9c3ae424c1,0.0,0.0,0.7861972,,,,-5.476301822196415,6.984574616553649,,0.8329626321792603,0.0,61.0
2023-06-26_11h23.27.039,low,False,True,True,300,2,10,NS,18,True,1.0,17.0,trial_c3e28af9-629b-45a5-ba9c-d127a38745de,1.0,1.0,0.90773296,0.99881697,4.161395174894173,-7.237855179190936,3.3286955300816756,-5.5571593152303205,1.8756672,0.4907183647155761,0.0,33.0
2023-06-26_11h23.27.039,low,False,True,True,300,2,10,NS,19,False,1.0,18.0,trial_68066fab-7f19-4b96-bc1d-0865f1169a9e,1.0,0.0,1.505388,1.2473309,1.932076331200866,11.99373537906999,,,,,1.0,-1.0
2023-06-26_11h23.27.039,low,False,True,True,300,2,10,NS,20,False,1.0,19.0,trial_50ca4ed4-465f-4c3d-b9e7-f0ae4e1cf7f7,0.0,1.0,0.6303282,,,,,,,,1.0,-1.0
2023-06-26_15h47.16.779,mid,False,True,False,300,4,50,sr,1,False,1.0,0.0,trial_cfb9caf7-eae7-4bb9-ad73-b7230af7cccd,1.0,0.0,1.0644319,0.38387012,11.250629097838887,1.6199716930838028,,,,,3.0,-1.0
2023-06-26_15h47.16.779,mid,False,True,False,300,4,50,sr,2,True,1.0,1.0,trial_aa46ba8f-387c-4779-9ce3-c2469c7d55f9,1.0,1.0,0.651875,0.3839078,-0.8917275374773228,-10.760178952226362,9.157950041504211,-7.24096781623515,10.648046,0.990826427936554,0.0,37.0
2023-06-26_15h47.16.779,mid,False,True,False,300,4,50,sr,3,True,1.0,2.0,trial_f7b669b8-59b7-43de-90cb-4dffcae24d5d,1.0,1.0,0.6034701,0.31978488,-9.838727163499795,-0.995762416849677,9.57745683760046,-2.310595042380863,19.460651,1.005864500999451,0.0,16.0
2023-06-26_15h47.16.779,mid,False,True,False,300,4,50,sr,4,False,1.0,3.0,trial_f904a338-1254-4468-b842-7d48b460ab58,0.0,1.0,0.321759,,,,,,,,3.0,-1.0
2023-06-26_15h47.16.779,mid,False,True,False,300,4,50,sr,5,False,1.0,4.0,trial_9287160f-5702-417b-b6cc-c868bd4b027e,0.0,1.0,0.39569902,,,,,,,,3.0,-1.0
2023-06-26_15h47.16.779,mid,False,True,False,300,4,50,sr,6,False,1.0,5.0,trial_339bc3da-9d2d-4189-8e74-e88f67246209,0.0,1.0,0.40741587,,,,,,,,3.0,-1.0
2023-06-26_15h47.16.779,mid,False,True,False,300,4,50,sr,7,True,1.0,6.0,trial_cf78afde-100b-4b7f-83ee-594c3b5e93ce,1.0,1.0,0.5254791,0.3513751,3.3885646424138267,7.148682425443204,5.396511099414069,7.700274310398118,2.082331,0.9886699318885804,0.0,74.0
2023-06-26_15h47.16.779,mid,False,True,False,300,4,50,sr,8,True,1.0,7.0,trial_900755cc-cab4-4d00-a235-818510a90bdd,1.0,1.0,0.2681489,0.4480481,-7.564821942932621,-3.92360116490022,-7.818681349090295,-4.34065594509857,0.48824102,0.9886699318885804,0.0,74.0
2023-06-26_15h47.16.779,mid,False,True,False,300,4,50,sr,9,True,1.0,8.0,trial_329879c6-24e6-47d8-b359-614e602757fc,1.0,1.0,0.32241297,0.44800496,9.348277017887266,-3.9533254161494646,-3.2811832734863726,-6.594605009570261,12.9026985,0.9900014996528624,0.0,51.0
2023-06-26_15h47.16.779,mid,False,True,False,300,4,50,sr,10,True,1.0,9.0,trial_8e3721a9-62e0-4c36-96ed-257de83426ab,1.0,1.0,0.5136061,0.35957813,-12.3355642684363,2.021249084948598,-12.323164226251809,0.3882771933488901,1.633019,1.0085867643356323,0.0,7.0
2023-06-26_15h47.16.779,mid,False,True,False,300,4,50,sr,11,True,1.0,10.0,trial_7abf1a06-ab5b-4621-883b-5697d420e8e8,1.0,1.0,0.616318,0.4076922,-6.539335274833701,6.494748897959834,-7.719073273942863,7.836896053647632,1.7869362,1.0057801008224487,0.0,33.0
2023-06-26_15h47.16.779,mid,False,True,False,300,4,50,sr,12,False,1.0,11.0,trial_b8706f18-0fa8-4a18-a7c5-89173a80a125,0.0,1.0,0.3406489,,,,,,,,3.0,-1.0
2023-06-26_15h47.16.779,mid,False,True,False,300,4,50,sr,13,False,1.0,12.0,trial_7ff13ca8-7a51-4229-a19b-c4a03d352b39,0.0,1.0,0.47442794,,,,,,,,3.0,-1.0
2023-06-26_15h47.16.779,mid,False,True,False,300,4,50,sr,14,True,1.0,13.0,trial_8025cec9-0685-4141-81a4-1884b147b3e7,0.0,0.0,0.40281105,,,,-9.626701295855035,3.844298821256554,,0.9917131662368774,0.0,17.0
2023-06-26_15h47.16.779,mid,False,True,False,300,4,50,sr,15,True,1.0,14.0,trial_0a76381a-0c9d-40f5-a96a-3db9adf21e2b,1.0,1.0,0.4335091,0.4797721,9.645519530379708,1.3821776830898502,10.157204928081264,-0.0160851872449024,1.4889463,0.9947356581687928,0.0,30.0
2023-06-26_15h47.16.779,mid,False,True,False,300,4,50,sr,16,True,1.0,15.0,trial_af84d96b-92a4-4298-afc6-cfe57ff239df,1.0,1.0,0.3895111,0.37586808,0.8620032862280786,10.4480743141093,5.971714075538369,-1.3482012539091024,12.855398,1.0037909746170044,0.0,63.0
2023-06-26_15h47.16.779,mid,False,True,False,300,4,50,sr,17,False,1.0,16.0,trial_4102b2f7-0f2d-401c-bf44-3a0d9bbfec5d,1.0,0.0,0.6358669,,,,,,,,3.0,-1.0
2023-06-26_15h47.16.779,mid,False,True,False,300,4,50,sr,18,False,1.0,17.0,trial_6e1d7fc5-fe99-4fec-918f-64f74510b6db,0.0,1.0,0.39385796,,,,,,,,3.0,-1.0
2023-06-26_15h47.16.779,mid,False,True,False,300,4,50,sr,19,True,1.0,18.0,trial_224938d2-57e0-47c9-b0d3-d1e294ef65b3,1.0,1.0,0.58314514,0.38349795,-3.1804948836691183,-7.178406676692448,-2.2642170287625927,-7.360212542803399,0.9341405,1.0000357627868652,0.0,44.0
2023-06-26_15h47.16.779,mid,False,True,False,300,4,50,sr,20,True,1.0,19.0,trial_212ffaf2-1e23-47c5-aec7-ff3892802cab,1.0,1.0,0.7640691,0.31986904,-3.983049667398708,-7.416200686686402,-5.240440772570756,-6.948831764401615,1.3414418,1.0302560329437256,0.0,62.0
2023-06-26_15h47.16.779,mid,False,True,False,300,4,50,sr,21,True,1.0,20.0,trial_19ac279d-b2d2-479f-a52c-ac6decc6f584,1.0,1.0,0.31328607,0.4076519,-5.6476077373563776,-5.900263872974953,-7.559388099414853,-7.529438940291866,2.5117953,0.990826427936554,0.0,47.0
2023-06-26_15h47.16.779,mid,False,True,False,300,4,50,sr,22,False,1.0,21.0,trial_b3830848-243b-41b9-a249-d224438cd341,0.0,1.0,0.320179,,,,,,,,3.0,-1.0
2023-06-26_15h47.16.779,mid,False,True,False,300,4,50,sr,23,False,1.0,22.0,trial_3ceb9d07-0ce1-4ddf-ab71-3d728d3b28bf,0.0,1.0,0.22674012,,,,,,,,3.0,-1.0
2023-06-26_15h47.16.779,mid,False,True,False,300,4,50,sr,24,True,1.0,23.0,trial_7ae10565-5f0d-4afa-a7e0-56ff4cf23eeb,1.0,1.0,0.4703791,0.3838799,9.318552766638025,0.341828889366307,-6.979076217942163,3.4263362970871403,16.58695,1.01024067401886,0.0,13.0
2023-06-26_15h47.16.779,mid,False,True,False,300,4,50,sr,25,True,1.0,24.0,trial_28658e58-33c8-4f14-9785-0bb6f106a6bf,1.0,1.0,0.44042015,0.3603289,-5.365227350488559,7.62427044543111,0.9700113472843048,9.303025305214517,6.5538893,0.9991062879562378,0.0,0.0
2023-06-26_15h47.16.779,mid,False,True,False,300,4,50,sr,26,False,1.0,25.0,trial_8dd2a122-792b-47ff-92d9-49f4f5c3b6c9,1.0,0.0,1.251636,0.36023998,13.851501082147744,-2.808941743053567,,,,,3.0,-1.0
2023-06-26_15h47.16.779,mid,False,True,False,300,4,50,sr,27,False,1.0,26.0,trial_8529cd4c-6ec3-4fd5-bfb7-321a0fdda5b2,0.0,1.0,0.3544681,,,,,,,,3.0,-1.0
2023-06-26_15h47.16.779,mid,False,True,False,300,4,50,sr,28,True,1.0,27.0,trial_9e5bd2bc-bf9b-48ce-9027-8898cce33a03,1.0,1.0,0.521883,0.40011692,7.5499598173079985,0.3566910149909291,8.029246124587505,-0.0893113023083237,0.65470105,0.9869959950447084,0.0,0.0
2023-06-26_15h47.16.779,mid,False,True,False,300,4,50,sr,29,False,1.0,28.0,trial_000b5a51-f937-406c-bb6a-e3f1def8f556,0.0,1.0,0.5993638,,,,,,,,3.0,-1.0
2023-06-26_15h47.16.779,mid,False,True,False,300,4,50,sr,30,False,1.0,29.0,trial_5ae57179-28dd-459e-b2bc-4fae9baa36f7,0.0,1.0,0.34743214,,,,,,,,3.0,-1.0
2023-06-26_15h47.16.779,mid,False,True,False,300,4,50,sr,31,True,1.0,30.0,trial_cfe9ad19-3db8-4e48-8397-73f6e6290ae7,1.0,1.0,0.752825,0.35183907,7.237855179190936,5.929988124224196,1.2947152326231055,-5.967071862838645,13.298908,1.000043272972107,0.0,4.0
2023-06-26_15h47.16.779,mid,False,True,False,300,4,50,sr,32,False,1.0,31.0,trial_236000e4-3e69-4724-b772-406ad19ea67e,0.0,1.0,0.30649114,,,,,,,,3.0,-1.0
2023-06-26_15h47.16.779,mid,False,True,False,300,4,50,sr,33,False,1.0,32.0,trial_55c097ab-09ab-48fd-9ef9-d8a48610d04e,0.0,1.0,0.20260715,,,,,,,,3.0,-1.0
2023-06-26_15h47.16.779,mid,False,True,False,300,4,50,sr,34,False,1.0,33.0,trial_72c70914-77ba-47ca-81e2-921b207dc5d0,0.0,1.0,0.2353921,,,,,,,,3.0,-1.0
2023-06-26_15h47.16.779,mid,False,True,False,300,4,50,sr,35,True,1.0,34.0,trial_e67b5fbb-6539-4167-8c22-283f9596bc01,1.0,1.0,0.45522285,0.5845361,8.218755470415992,-0.9363139143511888,-4.313023069440597,6.283709391307061,14.462856,0.990826427936554,0.0,37.0
2023-06-26_15h47.16.779,mid,False,True,False,300,4,50,sr,36,False,1.0,35.0,trial_0faece8c-59f1-4858-87ed-fee1fc27891b,1.0,0.0,0.71991706,0.43200302,8.70920561602852,2.2144567180686847,,,,,3.0,-1.0
2023-06-26_15h47.16.779,mid,False,True,False,300,4,50,sr,37,True,1.0,36.0,trial_7061209d-3ffe-4f93-b11c-bb2822b02baa,1.0,1.0,0.67173195,0.37583518,-6.256954887965882,-7.386476435437157,-6.138318812285297,-10.187111100647694,2.8031464,1.011980414390564,0.0,23.0
2023-06-26_15h47.16.779,mid,False,True,False,300,4,50,sr,38,True,1.0,37.0,trial_f11c8ff9-59eb-4061-9d7b-910770873c3a,0.0,0.0,0.39197397,,,,5.336821679770113,-4.81435316111703,,0.9917131662368774,0.0,21.0
2023-06-26_15h47.16.779,mid,False,True,False,300,4,50,sr,39,False,1.0,38.0,trial_da62209d-b927-4ad3-9137-3f66ebcc20e6,0.0,1.0,0.42874002,,,,,,,,3.0,-1.0
2023-06-26_15h47.16.779,mid,False,True,False,300,4,50,sr,40,True,1.0,39.0,trial_5bf3e046-36b8-4f2d-b076-ed99075ba864,1.0,1.0,0.38191915,0.51973295,-2.4225264768133936,9.496898274133486,-2.5235944133289117,10.299227131518553,0.80866945,0.990826427936554,0.0,37.0
2023-06-26_15h47.16.779,mid,False,True,False,300,4,50,sr,41,True,1.0,40.0,trial_1cdd6e15-eccd-4552-8979-3acfae632ffb,1.0,1.0,0.4488082,0.35981107,-2.630596235558102,8.724067741653142,5.956950812292404,1.000884919337003,11.549611,1.006396770477295,0.0,55.0
2023-06-26_15h47.16.779,mid,False,True,False,300,4,50,sr,42,False,1.0,41.0,trial_1bb94f2a-83ed-442a-9e7d-eda97bc26138,0.0,1.0,0.26884007,,,,,,,,3.0,-1.0
2023-06-26_15h47.16.779,mid,False,True,False,300,4,50,sr,43,True,1.0,42.0,trial_3ba0d09d-39f9-4a47-85ab-a3fcbb790ff2,1.0,1.0,0.45466304,0.31161284,1.4713504368375827,-7.891788706674307,2.913641962236167,4.443113332501511,12.418938,0.990826427936554,0.0,37.0
2023-06-26_15h47.16.779,mid,False,True,False,300,4,50,sr,44,False,1.0,43.0,trial_2ff60c90-347d-469f-a49a-dffc3b1e3640,0.0,1.0,0.33254504,,,,,,,,3.0,-1.0
2023-06-26_15h47.16.779,mid,False,True,False,300,4,50,sr,45,False,1.0,44.0,trial_919c49c4-0cf5-41cb-9112-133fb00213f6,0.0,1.0,0.47915387,,,,,,,,3.0,-1.0
2023-06-26_15h47.16.779,mid,False,True,False,300,4,50,sr,46,False,1.0,45.0,trial_06d337b4-f98a-42d7-ada0-a33b33c1ff45,1.0,0.0,0.6330619,0.3198452,-0.3715531406155511,-7.089233922944716,,,,,3.0,-1.0
2023-06-26_15h47.16.779,mid,False,True,False,300,4,50,sr,47,True,1.0,46.0,trial_128e7658-e1f5-479b-90cf-e0060ca80bc1,0.0,0.0,1.4835138,,,,-4.044335706389759,7.644943641737438,,0.9929296374320984,0.0,66.0
2023-06-26_15h47.16.779,mid,False,True,False,300,4,50,sr,48,False,1.0,47.0,trial_4045c368-4b6f-4c6e-8446-eb8272f86074,1.0,0.0,0.525084,0.34341192,-9.45231189725962,-1.0254866680989212,,,,,3.0,-1.0
2023-06-26_15h47.16.779,mid,False,True,False,300,4,50,sr,49,True,1.0,48.0,trial_7e932d34-a167-4f01-a70a-740bbd3531cd,0.0,0.0,0.6890881,,,,-6.3782633439200795,-4.265182482558613,,1.0256428718566897,0.0,60.0
2023-06-26_15h47.16.779,mid,False,True,False,300,4,50,sr,50,False,1.0,49.0,trial_8302f217-4ff5-40ef-b7ef-bd9d56f5e7f8,0.0,1.0,0.55557084,,,,,,,,3.0,-1.0
2023-06-26_15h47.16.779,mid,False,True,False,300,4,50,sr,51,True,1.0,50.0,trial_744abfc3-8ec7-49dd-bbac-3582d6ac456f,1.0,1.0,0.38501596,0.4239049,-11.48842310783284,2.288767346191795,-10.977195873782806,3.046626402276036,0.9141683,1.0005711317062378,0.0,22.0
2023-06-26_15h47.16.779,mid,False,True,False,300,4,50,sr,52,False,1.0,51.0,trial_03c1e564-ef87-405f-b55c-e0d93184288a,0.0,1.0,0.508842,,,,,,,,3.0,-1.0
2023-06-26_15h47.16.779,mid,False,True,False,300,4,50,sr,53,False,1.0,52.0,trial_37a6b7ef-0fa1-4f68-9fef-089978eba9fe,0.0,1.0,0.45916796,,,,,,,,3.0,-1.0
2023-06-26_15h47.16.779,mid,False,True,False,300,4,50,sr,54,False,1.0,53.0,trial_d540a09e-2fdd-46b0-88f6-75f3e39e15b9,0.0,1.0,0.2751639,,,,,,,,3.0,-1.0
2023-06-26_15h47.16.779,mid,False,True,False,300,4,50,sr,55,False,1.0,54.0,trial_5aea8993-b120-44b5-9663-c6f335988472,0.0,1.0,0.53408,,,,,,,,3.0,-1.0
2023-06-26_15h47.16.779,mid,False,True,False,300,4,50,sr,56,True,1.0,55.0,trial_051bd7ae-be4d-46f6-b9d3-db508a9bda8b,1.0,1.0,0.47226596,0.41585588,-7.014923294821606,-9.764416535376684,10.20143113988115,-1.4354445957614186,19.125235,0.9929296374320984,0.0,18.0
2023-06-26_15h47.16.779,mid,False,True,False,300,4,50,sr,57,False,1.0,56.0,trial_b169ee06-cd05-4c0c-8836-4cecf263f6c1,0.0,1.0,0.33668303,,,,,,,,3.0,-1.0
2023-06-26_15h47.16.779,mid,False,True,False,300,4,50,sr,58,True,1.0,57.0,trial_b8af5af0-a867-4f68-bd29-153349321b48,1.0,1.0,0.5574961,0.30356002,-9.987348419746017,5.261192471116204,-2.9765772566516793,-5.554617551751387,12.889246,0.9929296374320984,0.0,66.0
2023-06-26_15h47.16.779,mid,False,True,False,300,4,50,sr,59,True,1.0,58.0,trial_f73d189e-f9e8-4c52-8c05-06812685ed6e,0.0,0.0,0.41743994,,,,1.8697550989254643,7.8514101072287295,,0.997423529624939,0.0,0.0
2023-06-26_15h47.16.779,mid,False,True,False,300,4,50,sr,60,False,1.0,59.0,trial_dd3f57ec-3734-4207-b024-53f5c415d3fb,0.0,1.0,0.53890896,,,,,,,,3.0,-1.0
2023-06-26_15h47.16.779,mid,False,True,False,300,4,50,sr,61,True,1.0,60.0,trial_85b0532a-e4d3-44e6-955d-040f4027e1a9,1.0,1.0,0.47791004,0.3278172,1.991524833699354,-5.246330345491582,2.3479023017303784,-4.487921244143231,0.83796734,0.966286599636078,0.0,32.0
2023-06-26_15h47.16.779,mid,False,True,False,300,4,50,sr,62,True,1.0,61.0,trial_5c9d02c1-1171-4581-9dd5-453ce8f8d6e2,1.0,1.0,0.5701201,0.37565303,-5.172019717368473,9.229380012890292,-5.490407105540133,7.6698867583585555,1.5916625,1.0125123262405396,0.0,74.0
2023-06-26_15h47.16.779,mid,False,True,False,300,4,50,sr,63,False,1.0,62.0,trial_8ab97f09-5be0-4570-9574-4ccf6744cf5e,0.0,1.0,0.4033959,,,,,,,,3.0,-1.0
2023-06-26_15h47.16.779,mid,False,True,False,300,4,50,sr,64,True,1.0,63.0,trial_18ab930e-e4ba-4e4a-933a-629237ba9ad0,1.0,1.0,0.6420331,0.38385797,11.33980185158662,-3.2399433861676057,8.943347316059665,-1.0931313585913047,3.2174208,0.9939753413200378,0.0,70.0
2023-06-26_15h47.16.779,mid,False,True,False,300,4,50,sr,65,False,1.0,64.0,trial_2359f523-fe46-4649-b87a-c15c32bcae24,0.0,1.0,0.8803201,,,,,,,,3.0,-1.0
2023-06-26_15h47.16.779,mid,False,True,False,300,4,50,sr,66,True,1.0,65.0,trial_99016836-73a2-489a-9651-65d254143a6c,1.0,1.0,0.510654,0.49580002,10.760178952226362,3.834428411152488,-5.47221352509772,-10.623305494830102,21.737448,1.0037909746170044,0.0,7.0
2023-06-26_15h47.16.779,mid,False,True,False,300,4,50,sr,67,True,1.0,66.0,trial_f538ba6a-81a0-411d-9968-cfb33c815955,1.0,1.0,0.4337511,0.416106,6.048885129221174,-8.902413249148605,7.448320480173928,-10.202690201851851,1.9102721,0.992530107498169,0.0,31.0
2023-06-26_15h47.16.779,mid,False,True,False,300,4,50,sr,68,True,1.0,67.0,trial_35786606-5f38-4d24-864b-112df596d0d7,1.0,1.0,0.6925199,0.29545403,8.218755470415992,-2.883252371176677,8.4479332729475,-5.126476242674847,2.2549005,0.9929296374320984,0.0,18.0
2023-06-26_15h47.16.779,mid,False,True,False,300,4,50,sr,69,True,1.0,68.0,trial_0b28077f-7de1-4132-951e-bcf14bcb84de,1.0,1.0,0.45846105,0.288229,2.0509733361978424,-6.836577787326141,-0.0797043742331206,-6.494461981723763,2.1579692,1.006396770477295,0.0,55.0
2023-06-26_15h47.16.779,mid,False,True,False,300,4,50,sr,70,False,1.0,69.0,trial_3d63bfa6-93cd-4e6f-b7c3-9022b8992567,0.0,1.0,0.36500502,,,,,,,,3.0,-1.0
2023-06-26_15h47.16.779,mid,False,True,False,300,4,50,sr,71,False,1.0,70.0,trial_a394786f-0c23-452b-ab34-2f03efd41a50,0.0,1.0,0.453655,,,,,,,,3.0,-1.0
2023-06-26_15h47.16.779,mid,False,True,False,300,4,50,sr,72,False,1.0,71.0,trial_37f75ed3-ec82-4f44-8883-c2ebe186784d,0.0,1.0,0.6439061,,,,,,,,3.0,-1.0
2023-06-26_15h47.16.779,mid,False,True,False,300,4,50,sr,73,True,1.0,72.0,trial_c3dd8b59-1748-4c08-ae34-8517a5d23de0,1.0,1.0,0.44737506,0.37579298,9.125345133517936,-2.229318843693307,0.8313244706873495,9.22873687155809,14.144887,0.9947356581687928,0.0,30.0
2023-06-26_15h47.16.779,mid,False,True,False,300,4,50,sr,74,True,1.0,73.0,trial_1de6a13e-fef3-4462-ab56-e86a3ce02130,1.0,1.0,0.6531372,0.288311,8.35251460103759,-1.7685929493300234,8.14284125149607,-3.1859847238804457,1.4328163,0.9947356581687928,0.0,30.0
2023-06-26_15h47.16.779,mid,False,True,False,300,4,50,sr,75,False,1.0,74.0,trial_8e73cf29-f929-4894-b2dc-63a5964896e6,0.0,1.0,0.8790741,,,,,,,,3.0,-1.0
2023-06-26_15h47.16.779,mid,False,True,False,300,4,50,sr,76,True,1.0,75.0,trial_43d45222-ddc4-4061-88dd-6398b0778509,0.0,0.0,0.4137149,,,,8.041611069245048,-7.321610333930336,,0.9786678552627563,0.0,52.0
2023-06-26_15h47.16.779,mid,False,True,False,300,4,50,sr,77,True,1.0,76.0,trial_561599f9-35c5-41f7-9cdd-1a75935b19fc,1.0,1.0,0.34875703,0.39177918,7.906650832298929,-4.518086189885103,8.940891905361337,-5.729785933517646,1.5930697,0.9917131662368774,0.0,21.0
2023-06-26_15h47.16.779,mid,False,True,False,300,4,50,sr,78,False,1.0,77.0,trial_37db6ce1-81b9-4549-9b17-085f79facc21,0.0,1.0,1.2632959,,,,,,,,3.0,-1.0
2023-06-26_15h47.16.779,mid,False,True,False,300,4,50,sr,79,True,1.0,78.0,trial_13dd0924-022a-48b2-a745-fc0f5c3f5723,1.0,1.0,0.59182405,0.383811,-4.295154305515772,8.64975711353003,-3.858655236154095,7.080686146432591,1.6286544,1.0065877437591553,0.0,54.0
2023-06-26_15h47.16.779,mid,False,True,False,300,4,50,sr,80,True,1.0,79.0,trial_f46d851a-cd05-4688-bc61-2ad5a43b641f,1.0,1.0,0.79745483,0.32786512,8.976723877271715,5.751642616728732,6.980383659851708,-4.292035830860703,10.240159,1.0065877437591553,0.0,54.0
2023-06-26_15h47.16.779,mid,False,True,False,300,4,50,sr,81,False,1.0,80.0,trial_728cc2bf-ad9b-4cbb-927c-77d6a42f5339,0.0,1.0,0.38660312,,,,,,,,3.0,-1.0
2023-06-26_15h47.16.779,mid,False,True,False,300,4,50,sr,82,False,1.0,81.0,trial_c6bb58a5-0264-47da-a799-9db5943b3c0b,0.0,1.0,0.3187101,,,,,,,,3.0,-1.0
2023-06-26_15h47.16.779,mid,False,True,False,300,4,50,sr,83,True,1.0,82.0,trial_512bd6fe-b495-4344-b7b7-74b23686733a,1.0,1.0,0.599751,0.2717929,0.3864152662401731,-5.929988124224196,-1.8239291045315449,-4.726891140405865,2.5165582,0.966286599636078,0.0,32.0
2023-06-26_15h47.16.779,mid,False,True,False,300,4,50,sr,84,True,1.0,83.0,trial_3a4a7ad6-a416-4d8f-94f5-8ac4b20b237e,1.0,1.0,0.61322,0.32790494,9.110483007893317,-1.0254866680989212,-9.972612139813297,3.9974511484784783,19.73308,1.000043272972107,0.0,28.0
2023-06-26_15h47.16.779,mid,False,True,False,300,4,50,sr,85,False,1.0,84.0,trial_3552f6b5-cda5-4303-b68d-58bd91698f71,0.0,1.0,0.2930839,,,,,,,,3.0,-1.0
2023-06-26_15h47.16.779,mid,False,True,False,300,4,50,sr,86,False,1.0,85.0,trial_d4cfbb8e-cdce-46cd-959d-86c91b36f35f,0.0,1.0,0.29911804,,,,,,,,3.0,-1.0
2023-06-26_15h47.16.779,mid,False,True,False,300,4,50,sr,87,False,1.0,86.0,trial_4712a416-e053-4e2b-a8da-6f151ba1fb86,1.0,0.0,0.40957284,0.4638071,-5.81109111922722,6.762267159203032,,,,,3.0,-1.0
2023-06-26_15h47.16.779,mid,False,True,False,300,4,50,sr,88,False,1.0,87.0,trial_41f63085-7b9f-4ca7-8038-6dddbbcd92b6,0.0,1.0,0.7111769,,,,,,,,3.0,-1.0
2023-06-26_15h47.16.779,mid,False,True,False,300,4,50,sr,89,False,1.0,88.0,trial_ffedc908-0a80-4f92-8aac-5e958614c451,1.0,0.0,0.69266987,0.44752097,13.539396444030684,-4.250567928641906,,,,,3.0,-1.0
2023-06-26_15h47.16.779,mid,False,True,False,300,4,50,sr,90,True,1.0,89.0,trial_57b99268-afad-48ee-9ea1-8995ef486878,1.0,1.0,0.47547793,0.3358431,-5.320640973614692,2.1550082155701964,-5.793279460849707,3.2554639200378865,1.1976602,0.9981024265289308,0.0,56.0
2023-06-26_15h47.16.779,mid,False,True,False,300,4,50,sr,91,True,1.0,90.0,trial_ec481c49-c744-4353-835b-85d2184c12aa,1.0,1.0,0.44076204,0.79993606,9.942762042872149,-0.668795653107992,-4.425465286941173,-2.877651977600891,14.537022,1.0092586278915403,0.0,31.0
2023-06-26_15h47.16.779,mid,False,True,False,300,4,50,sr,92,False,1.0,91.0,trial_a8397849-24c6-4e07-9765-f9fe8a796f6a,0.0,1.0,0.3105452,,,,,,,,3.0,-1.0
2023-06-26_15h47.16.779,mid,False,True,False,300,4,50,sr,93,True,1.0,92.0,trial_80b3f6e1-c6ef-4f60-9c76-bf7d93ea2825,1.0,1.0,0.582731,0.44790983,5.573297109233267,5.127433340494606,7.478273475009163,4.772487148965091,1.937762,1.0129791498184204,0.0,68.0
2023-06-26_15h47.16.779,mid,False,True,False,300,4,50,sr,94,True,1.0,93.0,trial_b31fc687-80d0-45ed-a820-a0349cc89940,1.0,1.0,0.6207309,0.47141504,8.099858465419015,6.420438269836724,8.948343782597052,6.251539725661361,0.8651324,1.0037909746170044,0.0,63.0
2023-06-26_15h47.16.779,mid,False,True,False,300,4,50,sr,95,False,1.0,94.0,trial_1dc4230a-c352-4840-b1a9-a118766add9f,0.0,1.0,0.290555,,,,,,,,3.0,-1.0
2023-06-26_15h47.16.779,mid,False,True,False,300,4,50,sr,96,True,1.0,95.0,trial_41710da0-cbb7-4d64-8750-0585803c28bd,0.0,0.0,0.57512,,,,1.5403572236789802,-8.405099963611177,,1.000043272972107,0.0,28.0
2023-06-26_15h47.16.779,mid,False,True,False,300,4,50,sr,97,False,1.0,96.0,trial_e6a9dd34-13de-450c-b188-76df19a81b09,0.0,1.0,0.544549,,,,,,,,3.0,-1.0
2023-06-26_15h47.16.779,mid,False,True,False,300,4,50,sr,98,True,1.0,97.0,trial_0983dca6-aaf1-4746-a8f8-54013c4102a2,1.0,1.0,0.38842392,0.480237,9.407725520385757,-1.991524833699354,9.906635085538763,-3.0397880217576176,1.1609335,0.9727528691291808,0.0,0.0
2023-06-26_15h47.16.779,mid,False,True,False,300,4,50,sr,99,False,1.0,98.0,trial_1a7340b9-f605-4d8b-8c90-abfe341f9759,0.0,1.0,0.362159,,,,,,,,3.0,-1.0
2023-06-26_15h47.16.779,mid,False,True,False,300,4,50,sr,100,False,1.0,99.0,trial_a4b7aef0-c1b1-4799-8de6-af54265ce01c,0.0,1.0,0.3714509,,,,,,,,3.0,-1.0
2023-06-26_13h48.14.556,high,False,True,False,300,16,50,DH,1,False,1.0,0.0,trial_f428160c-9190-410b-979d-b6b905588ea9,0.0,1.0,0.35718894,,,,,,,,15.0,-1.0
2023-06-26_13h48.14.556,high,False,True,False,300,16,50,DH,2,False,1.0,1.0,trial_fbe21974-d78f-4020-a830-79c1ebd32a77,0.0,1.0,0.34920502,,,,,,,,15.0,-1.0
2023-06-26_13h48.14.556,high,False,True,False,300,16,50,DH,3,False,1.0,2.0,trial_76fac8c9-1b2b-4ce9-bf3e-d8c6819ef677,0.0,1.0,0.260252,,,,,,,,15.0,-1.0
2023-06-26_13h48.14.556,high,False,True,False,300,16,50,DH,4,True,1.0,3.0,trial_f0205422-cdf1-4b7c-870d-7485ce327818,0.0,0.0,0.22904515,,,,5.635641012936184,-2.8711811559724056,,1.497239351272583,0.0,20.0
2023-06-26_13h48.14.556,high,False,True,False,300,16,50,DH,5,False,1.0,4.0,trial_edc15cf0-73d2-4439-baab-394d478d21b4,1.0,0.0,0.64334893,0.49599195,1.3821776830898502,7.371614309812535,,,,,15.0,-1.0
2023-06-26_13h48.14.556,high,False,True,False,300,16,50,DH,6,False,1.0,5.0,trial_8b3e0207-eb4c-429a-95bd-2780b0109415,0.0,1.0,0.49069715,,,,,,,,15.0,-1.0
2023-06-26_13h48.14.556,high,False,True,False,300,16,50,DH,7,True,1.0,6.0,trial_d65b83dd-cb4a-4002-9cc5-45195392fadc,0.0,0.0,0.5998869,,,,-9.605864539985404,-3.3309129085560816,,1.491304636001587,0.0,65.0
2023-06-26_13h48.14.556,high,False,True,False,300,16,50,DH,8,False,1.0,7.0,trial_6b055329-a943-454b-8d01-1096a3e98144,0.0,1.0,0.49340606,,,,,,,,15.0,-1.0
2023-06-26_13h48.14.556,high,False,True,False,300,16,50,DH,9,True,1.0,8.0,trial_33cd0588-0bcb-4f30-bf55-fb55bc42ecd0,0.0,0.0,0.553951,,,,2.97719509613221,7.450113454714046,,1.4970649480819702,0.0,36.0
2023-06-26_13h48.14.556,high,False,True,False,300,16,50,DH,10,False,1.0,9.0,trial_8ffff80e-1b75-4139-834c-2f9d70a90296,0.0,1.0,0.360497,,,,,,,,15.0,-1.0
2023-06-26_13h48.14.556,high,False,True,False,300,16,50,DH,11,True,1.0,10.0,trial_ae600fe6-e260-44b6-b223-85301d468813,1.0,1.0,0.5924051,0.535861,5.58815923485789,10.477798565358544,5.039867875313932,9.662573175066363,0.982454,1.5169181823730469,0.0,56.0
2023-06-26_13h48.14.556,high,False,True,False,300,16,50,DH,12,True,1.0,11.0,trial_8cd4ec44-c11d-40ac-a719-f0f70390258e,0.0,0.0,0.43842387,,,,-2.0131408393870127,-9.98020133814858,,1.514548420906067,0.0,6.0
2023-06-26_13h48.14.556,high,False,True,False,300,16,50,DH,13,False,1.0,12.0,trial_c5962507-4b8b-4731-969f-8df0298e3d53,0.0,1.0,0.332649,,,,,,,,15.0,-1.0
2023-06-26_13h48.14.556,high,False,True,False,300,16,50,DH,14,True,1.0,13.0,trial_c0bee211-9792-4402-a9dd-21b60df3a7d3,1.0,1.0,0.638535,0.4559059,-5.067984837996118,4.295154305515772,-4.389844467086013,3.755944307569032,0.8663843,1.4989203214645386,0.0,65.0
2023-06-26_13h48.14.556,high,False,True,False,300,16,50,DH,15,True,1.0,14.0,trial_343812fa-213e-4127-9e35-ec1777110c2b,1.0,1.0,0.6795881,0.5514581,1.1443836730958974,10.477798565358544,-0.0803890937922198,11.17959480744556,1.41159,1.4970649480819702,0.0,44.0
2023-06-26_13h48.14.556,high,False,True,False,300,16,50,DH,16,True,1.0,15.0,trial_3ab5ae39-6a5b-4495-b3d5-fec6c6541041,0.0,0.0,0.4056468,,,,2.371356058125631,-12.051700970740788,,1.497239351272583,0.0,20.0
2023-06-26_13h48.14.556,high,False,True,False,300,16,50,DH,17,False,1.0,16.0,trial_9db410f5-fcbf-4951-835b-c32cd4c033c8,0.0,1.0,0.357023,,,,,,,,15.0,-1.0
2023-06-26_13h48.14.556,high,False,True,False,300,16,50,DH,18,True,1.0,17.0,trial_ac13568e-5c7b-4520-aacc-c777ceae7dd8,1.0,1.0,0.73303604,0.55173206,-4.428913436137369,-9.45231189725962,-5.111722979309097,-11.365733422935058,2.031603,1.515953540802002,0.0,38.0
2023-06-26_13h48.14.556,high,False,True,False,300,16,50,DH,19,True,1.0,18.0,trial_3de05326-d14a-4eec-b109-918cba520296,1.0,1.0,0.522352,0.4319601,-0.8768654118527007,-5.900263872974953,-0.46135431953542,-5.637739810867242,0.49149603,1.4945101737976074,0.0,59.0
2023-06-26_13h48.14.556,high,False,True,False,300,16,50,DH,20,False,1.0,19.0,trial_be4813bb-1977-4bab-913d-637e7d731b3f,0.0,1.0,0.46888494,,,,,,,,15.0,-1.0
2023-06-26_13h48.14.556,high,False,True,False,300,16,50,DH,21,False,1.0,20.0,trial_ce209aba-2a47-4d5d-99c7-538b54eafcae,0.0,1.0,0.43106508,,,,,,,,15.0,-1.0
2023-06-26_13h48.14.556,high,False,True,False,300,16,50,DH,22,False,1.0,21.0,trial_cfa96ec2-16b7-4931-a13a-461bab92d69c,0.0,1.0,0.40281296,,,,,,,,15.0,-1.0
2023-06-26_13h48.14.556,high,False,True,False,300,16,50,DH,23,True,1.0,22.0,trial_556d85ed-2a23-415b-a0ab-838a16d76133,0.0,0.0,0.42600918,,,,-0.5446549848315779,-10.611262803649712,,1.503100037574768,0.0,26.0
2023-06-26_13h48.14.556,high,False,True,False,300,16,50,DH,24,False,1.0,23.0,trial_0b25e043-781c-4b20-b696-38fb5be7b1de,0.0,1.0,0.37241197,,,,,,,,15.0,-1.0
2023-06-26_13h48.14.556,high,False,True,False,300,16,50,DH,25,False,1.0,24.0,trial_4235ad4a-aaca-406d-bd37-413b707fc8b0,0.0,1.0,0.32651687,,,,,,,,15.0,-1.0
2023-06-26_13h48.14.556,high,False,True,False,300,16,50,DH,26,True,1.0,25.0,trial_3515ef0f-f2f7-48f5-acbf-fd54cbab76c7,1.0,1.0,0.53712606,0.6560669,-11.116869967217289,0.8322790349788347,4.288494837510644,6.860784713943292,16.54292,1.4957720041275024,0.0,6.0
2023-06-26_13h48.14.556,high,False,True,False,300,16,50,DH,27,False,1.0,26.0,trial_08a9254f-79ff-45b1-8d59-c4b80aad3fb5,0.0,1.0,0.3457451,,,,,,,,15.0,-1.0
2023-06-26_13h48.14.556,high,False,True,False,300,16,50,DH,28,True,1.0,27.0,trial_88c0fb95-6299-4f35-b7ec-8d015c0f2191,0.0,0.0,0.37701416,,,,-0.4964677303104003,-7.489034920957709,,1.4957720041275024,0.0,6.0
2023-06-26_13h48.14.556,high,False,True,False,300,16,50,DH,29,False,1.0,28.0,trial_5adc7902-a682-4b8b-8e5a-84d1b0005fc5,0.0,1.0,0.40364313,,,,,,,,15.0,-1.0
2023-06-26_13h48.14.556,high,False,True,False,300,16,50,DH,30,True,1.0,29.0,trial_84c61f4e-0ff8-473f-bae4-cb55f6ca46f8,0.0,0.0,0.31666803,,,,3.0756977329478272,-7.327203827679357,,1.503100037574768,0.0,26.0
2023-06-26_13h48.14.556,high,False,True,False,300,16,50,DH,31,True,1.0,30.0,trial_e0dd07ef-ed2d-44dc-b8bb-c518ee9d3e72,0.0,0.0,0.63815904,,,,-5.073758704513494,-3.5115397351492077,,1.498714804649353,0.0,15.0
2023-06-26_13h48.14.556,high,False,True,False,300,16,50,DH,32,False,1.0,31.0,trial_81fe745e-6da3-4355-a1cb-5555b817c478,0.0,1.0,0.33059502,,,,,,,,15.0,-1.0
2023-06-26_13h48.14.556,high,False,True,False,300,16,50,DH,33,False,1.0,32.0,trial_d6e57634-1330-4c33-915d-5c62a2f3bcb9,0.0,1.0,0.31836987,,,,,,,,15.0,-1.0
2023-06-26_13h48.14.556,high,False,True,False,300,16,50,DH,34,False,1.0,33.0,trial_34c665aa-2622-40dd-97d1-9bf043e307a6,0.0,1.0,0.35276985,,,,,,,,15.0,-1.0
2023-06-26_13h48.14.556,high,False,True,False,300,16,50,DH,35,True,1.0,34.0,trial_dc1c6e06-0179-4d34-bc24-0321ddac38c7,1.0,1.0,0.567796,0.7674711,-1.3673155574652285,10.730454700977118,-2.0197321441966274,10.525152707893064,0.6839564,1.4970649480819702,0.0,36.0
2023-06-26_13h48.14.556,high,False,True,False,300,16,50,DH,36,True,1.0,35.0,trial_8227db69-303d-48ad-9516-5b1e68662746,0.0,0.0,0.421911,,,,-12.257353976331151,0.7828390567550183,,1.480380654335022,0.0,5.0
2023-06-26_13h48.14.556,high,False,True,False,300,16,50,DH,37,True,1.0,36.0,trial_aeb589b0-ed68-448f-bbd0-d723aee4ea98,1.0,1.0,0.53326297,0.583838,9.259104264139534,0.7579684068557243,9.09364240210619,1.1606504935391952,0.43535098,1.5050394535064695,0.0,60.0
2023-06-26_13h48.14.556,high,False,True,False,300,16,50,DH,38,True,1.0,37.0,trial_c3199e6f-6fe0-4b3f-b2b5-43b5fa8628b0,0.0,0.0,0.36237907,,,,-9.116746022630338,-0.0120940300986658,,1.5024561882019043,0.0,57.0
2023-06-26_13h48.14.556,high,False,True,False,300,16,50,DH,39,True,1.0,38.0,trial_556cfc36-b3f9-4dfc-8cc0-272b4ed480af,1.0,1.0,0.6284249,0.799958,-0.7282441556064803,6.539335274833701,-1.7766884064095745,6.743311893029334,1.068102,1.4988467693328855,0.0,60.0
2023-06-26_13h48.14.556,high,False,True,False,300,16,50,DH,40,False,1.0,39.0,trial_961da432-9e9a-48a3-8c7c-ec9d55976241,0.0,1.0,0.40882993,,,,,,,,15.0,-1.0
2023-06-26_13h48.14.556,high,False,True,False,300,16,50,DH,41,False,1.0,40.0,trial_8fd632c0-eaaf-4ead-a3b2-bcd99c2c5c0d,0.0,1.0,0.41666198,,,,,,,,15.0,-1.0
2023-06-26_13h48.14.556,high,False,True,False,300,16,50,DH,42,False,1.0,41.0,trial_395873fd-f43e-49bf-bc54-f986375fa836,0.0,1.0,0.39405704,,,,,,,,15.0,-1.0
2023-06-26_13h48.14.556,high,False,True,False,300,16,50,DH,43,False,1.0,42.0,trial_7324db74-4c49-4516-9271-d25fbca3d5b9,0.0,1.0,0.28772688,,,,,,,,15.0,-1.0
2023-06-26_13h48.14.556,high,False,True,False,300,16,50,DH,44,False,1.0,43.0,trial_e14faa46-7fda-45c3-b62b-2bb2d6d6c026,0.0,1.0,0.43729496,,,,,,,,15.0,-1.0
2023-06-26_13h48.14.556,high,False,True,False,300,16,50,DH,45,False,1.0,44.0,trial_6f46b529-725d-4758-83bd-804547a83d95,0.0,1.0,0.34481502,,,,,,,,15.0,-1.0
2023-06-26_13h48.14.556,high,False,True,False,300,16,50,DH,46,True,1.0,45.0,trial_3b6f6840-fb45-41cc-a841-55ff86a2c4c0,0.0,0.0,0.33569908,,,,-0.5272992974395596,7.172986245712897,,1.497239351272583,0.0,20.0
2023-06-26_13h48.14.556,high,False,True,False,300,16,50,DH,47,False,1.0,46.0,trial_198ae97b-31dc-4ddb-b7b3-3008223065b5,0.0,1.0,0.34035587,,,,,,,,15.0,-1.0
2023-06-26_13h48.14.556,high,False,True,False,300,16,50,DH,48,False,1.0,47.0,trial_f92e5f14-2667-427c-98a0-abb171337045,0.0,1.0,0.37038994,,,,,,,,15.0,-1.0
2023-06-26_13h48.14.556,high,False,True,False,300,16,50,DH,49,False,1.0,48.0,trial_907acec7-362b-473c-9eb3-ba2ef0800093,0.0,1.0,0.41045213,,,,,,,,15.0,-1.0
2023-06-26_13h48.14.556,high,False,True,False,300,16,50,DH,50,True,1.0,49.0,trial_acfe8765-ffe3-441c-b4fc-0cac68f0886d,1.0,1.0,0.63635397,0.615474,-8.560584359782299,7.04464754607085,-10.872286667749371,6.259711333233888,2.44133,1.4957720041275024,0.0,6.0
2023-06-26_13h48.14.556,high,False,True,False,300,16,50,DH,51,False,1.0,50.0,trial_c031084e-f555-425d-b151-51e9240358a0,0.0,1.0,0.23610711,,,,,,,,15.0,-1.0
2023-06-26_13h48.14.556,high,False,True,False,300,16,50,DH,52,False,1.0,51.0,trial_3e2382d5-9cef-4cfb-a411-4f7518ccab4d,0.0,1.0,0.37860203,,,,,,,,15.0,-1.0
2023-06-26_13h48.14.556,high,False,True,False,300,16,50,DH,53,False,1.0,52.0,trial_01c05a9b-4ca8-4e40-bda5-43fc8e44bb08,0.0,1.0,0.28634906,,,,,,,,15.0,-1.0
2023-06-26_13h48.14.556,high,False,True,False,300,16,50,DH,54,True,1.0,53.0,trial_6089a14e-6e9a-4a78-bf99-2da8bb2e3e91,1.0,1.0,0.5488858,0.631897,6.375851892962857,8.887551123523984,6.747415695220656,8.85084685880395,0.3733723,1.4988467693328855,0.0,50.0
2023-06-26_13h48.14.556,high,False,True,False,300,16,50,DH,55,True,1.0,54.0,trial_d9c9bed8-ec7a-42e8-a005-258cb6c303c4,1.0,1.0,0.7636299,0.60039806,1.7388686980807797,4.681569571755944,1.604047496482269,4.76021239329997,0.15608154,1.4957720041275024,0.0,6.0
2023-06-26_13h48.14.556,high,False,True,False,300,16,50,DH,56,True,1.0,55.0,trial_3478e7f0-b214-42a7-9503-0f11838a119f,0.0,0.0,0.2527628,,,,5.2092730474809015,-3.1823412175316026,,1.5148485898971558,0.0,41.0
